pos,corr_resp,thisN,thisTrialN,thisRepN,key_resp.keys,key_resp.corr,key_resp.rt,key_resp.duration,trials.thisRepN,trials.thisTrialN,trials.thisN,trials.thisIndex,trials_2.thisRepN,trials_2.thisTrialN,trials_2.thisN,trials_2.thisIndex,thisRow.t,notes,trial.started,fixation.started,line_1.started,line_2.started,line_3.started,line_4.started,fixation.stopped,probe.started,key_resp.started,trial.stopped,trials.key_resp.keys,trials.key_resp.corr,trials.key_resp.rt,trials.key_resp.duration,trials_2.key_resp.keys,trials_2.key_resp.corr,trials_2.key_resp.rt,trials_2.key_resp.duration,participant,session,date,expName,expVersion,psychopyVersion,frameRate,expStart,
-50,x,0,0,0,x,1,0.9325810829759575,None,0,0,0,0,,,,,0.012434207950718701,,0.009253041993360966,0.012434207950718701,1.0068973749876022,1.0068973749876022,1.0068973749876022,1.0068973749876022,1.0105909999692813,1.9981137499562465,1.9981137499562465,3.114461457997095,x,1,0.9325810829759575,None,,,,,1,001,2025-10-01_10h44.56.774, Motor Sequence Learning,,2025.1.1,None,2025-10-01 10h45.04.605132 +0530,
150,v,1,1,0,v,1,0.3226656239712611,None,0,1,1,1,,,,,3.1195475829881616,,3.1146385419997387,3.1195475829881616,4.112111666996498,4.112111666996498,4.112111666996498,4.112111666996498,4.112111666996498,5.112539833004121,5.112539833004121,5.44229745795019,v,1,0.3226656239712611,None,,,,,1,001,2025-10-01_10h44.56.774, Motor Sequence Learning,,2025.1.1,None,2025-10-01 10h45.04.605132 +0530,
50,c,2,2,0,c,1,0.3694652909762226,None,0,2,2,2,,,,,5.450761999993119,,5.442895874963142,5.450761999993119,6.4407311249524355,6.4407311249524355,6.4407311249524355,6.4407311249524355,6.44520208297763,7.440611291967798,7.440611291967798,7.813574666972272,c,1,0.3694652909762226,None,,,,,1,001,2025-10-01_10h44.56.774, Motor Sequence Learning,,2025.1.1,None,2025-10-01 10h45.04.605132 +0530,
-150,z,3,3,0,z,1,0.318041249003727,None,0,3,3,3,,,,,7.823086874966975,,7.814083291974384,7.823086874966975,8.811573666986078,8.811573666986078,8.811573666986078,8.811573666986078,8.811573666986078,9.813027957978193,9.813027957978193,10.142336791963317,z,1,0.318041249003727,None,,,,,1,001,2025-10-01_10h44.56.774, Motor Sequence Learning,,2025.1.1,None,2025-10-01 10h45.04.605132 +0530,
-50,x,4,0,1,x,1,0.38956916600000113,None,1,0,4,0,,,,,10.150946207984816,,10.142916832992341,10.150946207984816,11.140662541962229,11.140662541962229,11.140662541962229,11.140662541962229,11.144967250002082,12.14055837498745,12.14055837498745,12.542378166981507,x,1,0.38956916600000113,None,,,,,1,001,2025-10-01_10h44.56.774, Motor Sequence Learning,,2025.1.1,None,2025-10-01 10h45.04.605132 +0530,
150,v,5,1,1,v,1,0.3385044159949757,None,1,1,5,1,,,,,12.550959874992259,,12.542943291948177,12.550959874992259,13.540652499999851,13.540652499999851,13.540652499999851,13.540652499999851,13.545080916956067,14.540584082948044,14.540584082948044,14.880417291948106,v,1,0.3385044159949757,None,,,,,1,001,2025-10-01_10h44.56.774, Motor Sequence Learning,,2025.1.1,None,2025-10-01 10h45.04.605132 +0530,
50,c,6,2,1,c,1,0.3089482079958543,None,1,2,6,2,,,,,14.889740999962669,,14.880955041968264,14.889740999962669,15.878114832972642,15.878114832972642,15.878114832972642,15.878114832972642,15.878114832972642,16.879153999965638,16.879153999965638,17.191970207961276,c,1,0.3089482079958543,None,,,,,1,001,2025-10-01_10h44.56.774, Motor Sequence Learning,,2025.1.1,None,2025-10-01 10h45.04.605132 +0530,
-150,z,7,3,1,z,1,0.28531674901023507,None,1,3,7,3,,,,,17.19652249995852,,17.192644499999005,17.19652249995852,18.190559749957174,18.190559749957174,18.190559749957174,18.190559749957174,18.195085041981656,19.19058670796221,19.19058670796221,19.480488582979888,z,1,0.28531674901023507,None,,,,,1,001,2025-10-01_10h44.56.774, Motor Sequence Learning,,2025.1.1,None,2025-10-01 10h45.04.605132 +0530,
-50,x,8,0,2,x,1,0.4203582069603726,None,2,0,8,0,,,,,19.489653625001665,,19.48098804196343,19.489653625001665,20.478470832982566,20.478470832982566,20.478470832982566,20.478470832982566,20.478470832982566,21.47959683299996,21.47959683299996,21.908815832983237,x,1,0.4203582069603726,None,,,,,1,001,2025-10-01_10h44.56.774, Motor Sequence Learning,,2025.1.1,None,2025-10-01 10h45.04.605132 +0530,
150,v,9,1,2,v,1,0.26063433301169425,None,2,1,9,1,,,,,21.917165916995145,,21.909373292000964,21.917165916995145,22.907107499951962,22.907107499951962,22.907107499951962,22.907107499951962,22.911442707991228,23.90726695797639,23.90726695797639,24.175725249981042,v,1,0.26063433301169425,None,,,,,1,001,2025-10-01_10h44.56.774, Motor Sequence Learning,,2025.1.1,None,2025-10-01 10h45.04.605132 +0530,
50,c,10,2,2,c,1,0.2939749160432257,None,2,2,10,2,,,,,24.184334666992072,,24.176273249962833,24.184334666992072,25.17387004196644,25.17387004196644,25.17387004196644,25.17387004196644,25.17856833297992,26.173939999949653,26.173939999949653,26.476104874978773,c,1,0.2939749160432257,None,,,,,1,001,2025-10-01_10h44.56.774, Motor Sequence Learning,,2025.1.1,None,2025-10-01 10h45.04.605132 +0530,
-150,z,11,3,2,z,1,0.34992549900198355,None,2,3,11,3,,,,,26.484804457984865,,26.476729916990735,26.484804457984865,27.47399637498893,27.47399637498893,27.47399637498893,27.47399637498893,27.478584666969255,28.473876042000484,28.473876042000484,28.825371582992375,z,1,0.34992549900198355,None,,,,,1,001,2025-10-01_10h44.56.774, Motor Sequence Learning,,2025.1.1,None,2025-10-01 10h45.04.605132 +0530,
-50,x,12,0,3,x,1,0.42078608204610646,None,3,0,12,0,,,,,28.830059624975547,,28.826073624950368,28.830059624975547,29.823882291966584,29.823882291966584,29.823882291966584,29.823882291966584,29.82822904200293,30.823949457961135,30.823949457961135,31.24676237499807,x,1,0.42078608204610646,None,,,,,1,001,2025-10-01_10h44.56.774, Motor Sequence Learning,,2025.1.1,None,2025-10-01 10h45.04.605132 +0530,
150,v,13,1,3,v,1,0.3165903330082074,None,3,1,13,1,,,,,31.2563447499997,,31.247387291979976,31.2563447499997,32.24546391697368,32.24546391697368,32.24546391697368,32.24546391697368,32.24546391697368,33.24584679194959,33.24584679194959,33.575458457984496,v,1,0.3165903330082074,None,,,,,1,001,2025-10-01_10h44.56.774, Motor Sequence Learning,,2025.1.1,None,2025-10-01 10h45.04.605132 +0530,
50,c,14,2,3,c,1,0.2908704999717884,None,3,2,14,2,,,,,33.58389183296822,,33.576055874989834,33.58389183296822,34.57390466699144,34.57390466699144,34.57390466699144,34.57390466699144,34.57844783295877,35.57377362495754,35.57377362495754,35.87559029198019,c,1,0.2908704999717884,None,,,,,1,001,2025-10-01_10h44.56.774, Motor Sequence Learning,,2025.1.1,None,2025-10-01 10h45.04.605132 +0530,
-150,z,15,3,3,z,1,0.31852699897717685,None,3,3,15,3,,,,,35.884204916947056,,35.876162166998256,35.884204916947056,36.87381662498228,36.87381662498228,36.87381662498228,36.87381662498228,36.87816508294782,37.87389520800207,37.87389520800207,38.19587029196555,z,1,0.31852699897717685,None,,,,,1,001,2025-10-01_10h44.56.774, Motor Sequence Learning,,2025.1.1,None,2025-10-01 10h45.04.605132 +0530,
-50,x,16,0,4,x,1,0.43802716600475833,None,4,0,16,0,,,,,38.207047374977265,,38.19635695795296,38.207047374977265,39.19451633299468,39.19451633299468,39.19451633299468,39.19451633299468,39.19451633299468,40.195549582946114,40.195549582946114,40.6420095419744,x,1,0.43802716600475833,None,,,,,1,001,2025-10-01_10h44.56.774, Motor Sequence Learning,,2025.1.1,None,2025-10-01 10h45.04.605132 +0530,
150,v,17,1,4,v,1,0.41597154102055356,None,4,1,17,1,,,,,40.65087195800152,,40.64266808296088,40.65087195800152,41.6405795829487,41.6405795829487,41.6405795829487,41.6405795829487,41.64489199995296,42.640516499988735,42.640516499988735,43.05844125000294,v,1,0.41597154102055356,None,,,,,1,001,2025-10-01_10h44.56.774, Motor Sequence Learning,,2025.1.1,None,2025-10-01 10h45.04.605132 +0530,
50,c,18,2,4,c,1,0.22841404104838148,None,4,2,18,2,,,,,43.06314104195917,,43.05916099995375,43.06314104195917,44.05723016697448,44.05723016697448,44.05723016697448,44.05723016697448,44.06169379199855,45.05709274997935,45.05709274997935,45.2922831249889,c,1,0.22841404104838148,None,,,,,1,001,2025-10-01_10h44.56.774, Motor Sequence Learning,,2025.1.1,None,2025-10-01 10h45.04.605132 +0530,
-150,z,19,3,4,z,1,0.2588927079923451,None,4,3,19,3,,,,,45.300977291946765,,45.293110957951285,45.300977291946765,46.29052566696191,46.29052566696191,46.29052566696191,46.29052566696191,46.2945736249676,47.29046579200076,47.29046579200076,47.55922583298525,z,1,0.2588927079923451,None,,,,,1,001,2025-10-01_10h44.56.774, Motor Sequence Learning,,2025.1.1,None,2025-10-01 10h45.04.605132 +0530,
-50,x,20,0,5,x,1,0.26612679101526737,None,5,0,20,0,,,,,47.568942457961384,,47.55982262495672,47.568942457961384,48.557318791979924,48.557318791979924,48.557318791979924,48.557318791979924,48.56191983295139,49.55719916697126,49.55719916697126,49.82508308294928,x,1,0.26612679101526737,None,,,,,1,001,2025-10-01_10h44.56.774, Motor Sequence Learning,,2025.1.1,None,2025-10-01 10h45.04.605132 +0530,
150,v,21,1,5,v,1,0.40039670799160376,None,5,1,21,1,,,,,49.8297946669627,,49.825786374974996,49.8297946669627,50.82383079198189,50.82383079198189,50.82383079198189,50.82383079198189,50.82831420795992,51.82382479199441,51.82382479199441,52.23053191695362,v,1,0.40039670799160376,None,,,,,1,001,2025-10-01_10h44.56.774, Motor Sequence Learning,,2025.1.1,None,2025-10-01 10h45.04.605132 +0530,
50,c,22,2,5,c,1,0.32481495797401294,None,5,2,22,2,,,,,52.24042950000148,,52.23107695794897,52.24042950000148,53.22867074998794,53.22867074998794,53.22867074998794,53.22867074998794,53.22867074998794,54.22843874996761,54.22843874996761,54.558366457989905,c,1,0.32481495797401294,None,,,,,1,001,2025-10-01_10h44.56.774, Motor Sequence Learning,,2025.1.1,None,2025-10-01 10h45.04.605132 +0530,
-150,z,23,3,5,z,1,0.2581247490015812,None,5,3,23,3,,,,,54.56836895796005,,54.55905858299229,54.56836895796005,55.54605212499155,55.54605212499155,55.54605212499155,55.54605212499155,55.56083645799663,56.55702383298194,56.55702383298194,56.825172457960434,z,1,0.2581247490015812,None,,,,,1,001,2025-10-01_10h44.56.774, Motor Sequence Learning,,2025.1.1,None,2025-10-01 10h45.04.605132 +0530,
-50,x,24,0,6,x,1,0.2784417070215568,None,6,0,24,0,,,,,56.83465008297935,,56.82585049996851,56.83465008297935,57.82384283299325,57.82384283299325,57.82384283299325,57.82384283299325,57.827893332985695,58.82374608295504,58.82374608295504,59.10886362497695,x,1,0.2784417070215568,None,,,,,1,001,2025-10-01_10h44.56.774, Motor Sequence Learning,,2025.1.1,None,2025-10-01 10h45.04.605132 +0530,
150,v,25,1,6,v,1,0.2709257489768788,None,6,1,25,1,,,,,59.11859358299989,,59.10950012499234,59.11859358299989,60.10697162494762,60.10697162494762,60.10697162494762,60.10697162494762,60.11125112499576,61.107116666971706,61.107116666971706,61.37957799999276,v,1,0.2709257489768788,None,,,,,1,001,2025-10-01_10h44.56.774, Motor Sequence Learning,,2025.1.1,None,2025-10-01 10h45.04.605132 +0530,
50,c,26,2,6,c,1,0.2720431250054389,None,6,2,26,2,,,,,61.38962716696551,,61.3801092079957,61.38962716696551,62.3781376669649,62.3781376669649,62.3781376669649,62.3781376669649,62.3781376669649,63.37891458295053,63.37891458295053,63.65822558297077,c,1,0.2720431250054389,None,,,,,1,001,2025-10-01_10h44.56.774, Motor Sequence Learning,,2025.1.1,None,2025-10-01 10h45.04.605132 +0530,
-150,z,27,3,6,z,1,0.25885137397563085,None,6,3,27,3,,,,,63.66812383296201,,63.65891216695309,63.66812383296201,64.65711837494746,64.65711837494746,64.65711837494746,64.65711837494746,64.66170520795276,65.65710279199993,65.65710279199993,65.92536174994893,z,1,0.25885137397563085,None,,,,,1,001,2025-10-01_10h44.56.774, Motor Sequence Learning,,2025.1.1,None,2025-10-01 10h45.04.605132 +0530,
-50,x,28,0,7,x,1,0.327203166030813,None,7,0,28,0,,,,,65.93502404197352,,65.92598912498215,65.93502404197352,66.92376520799007,66.92376520799007,66.92376520799007,66.92376520799007,66.92830270796549,67.92370658298023,67.92370658298023,68.25832612498198,x,1,0.327203166030813,None,,,,,1,001,2025-10-01_10h44.56.774, Motor Sequence Learning,,2025.1.1,None,2025-10-01 10h45.04.605132 +0530,
150,v,29,1,7,v,1,0.355878998991102,None,7,1,29,1,,,,,68.26816499995766,,68.25901583296945,68.26816499995766,69.25690812495304,69.25690812495304,69.25690812495304,69.25690812495304,69.26073099998757,70.25699983298546,70.25699983298546,70.62524770799791,v,1,0.355878998991102,None,,,,,1,001,2025-10-01_10h44.56.774, Motor Sequence Learning,,2025.1.1,None,2025-10-01 10h45.04.605132 +0530,
50,c,30,2,7,c,1,0.256166081991978,None,7,2,30,2,,,,,70.63473287498346,,70.62586116697639,70.63473287498346,71.62379979196703,71.62379979196703,71.62379979196703,71.62379979196703,71.62826120795216,72.62364804197568,72.62364804197568,72.89197516697459,c,1,0.256166081991978,None,,,,,1,001,2025-10-01_10h44.56.774, Motor Sequence Learning,,2025.1.1,None,2025-10-01 10h45.04.605132 +0530,
-150,z,31,3,7,z,1,0.29090262501267716,None,7,3,31,3,,,,,72.90162049996434,,72.89262283296557,72.90162049996434,73.89046287495876,73.89046287495876,73.89046287495876,73.89046287495876,73.89495491696289,74.89033974998165,74.89033974998165,75.19189933297457,z,1,0.29090262501267716,None,,,,,1,001,2025-10-01_10h44.56.774, Motor Sequence Learning,,2025.1.1,None,2025-10-01 10h45.04.605132 +0530,
-50,x,32,0,8,x,1,0.2723131659440696,None,8,0,32,0,,,,,75.20133795798756,,75.19254724995699,75.20133795798756,76.1905380829703,76.1905380829703,76.1905380829703,76.1905380829703,76.19500645797234,77.19039108295692,77.19039108295692,77.47557874995982,x,1,0.2723131659440696,None,,,,,1,001,2025-10-01_10h44.56.774, Motor Sequence Learning,,2025.1.1,None,2025-10-01 10h45.04.605132 +0530,
150,v,33,1,8,v,1,0.2739710829919204,None,8,1,33,1,,,,,77.48502783296863,,77.47615987499012,77.48502783296863,78.47368833294604,78.47368833294604,78.47368833294604,78.47368833294604,78.47796145797474,79.47374849999323,79.47374849999323,79.7587097499636,v,1,0.2739710829919204,None,,,,,1,001,2025-10-01_10h44.56.774, Motor Sequence Learning,,2025.1.1,None,2025-10-01 10h45.04.605132 +0530,
50,c,34,2,8,c,1,0.2235430830041878,None,8,2,34,2,,,,,79.76812249998329,,79.75933495798381,79.76812249998329,80.75716366700362,80.75716366700362,80.75716366700362,80.75716366700362,80.76159704197198,81.75702837499557,81.75702837499557,81.99189566698624,c,1,0.2235430830041878,None,,,,,1,001,2025-10-01_10h44.56.774, Motor Sequence Learning,,2025.1.1,None,2025-10-01 10h45.04.605132 +0530,
-150,z,35,3,8,z,1,0.27102583198575303,None,8,3,35,3,,,,,82.00135404197499,,81.99250991694862,82.00135404197499,82.9903997919755,82.9903997919755,82.9903997919755,82.9903997919755,82.9948690829915,83.99043441697722,83.99043441697722,84.27543916698778,z,1,0.27102583198575303,None,,,,,1,001,2025-10-01_10h44.56.774, Motor Sequence Learning,,2025.1.1,None,2025-10-01 10h45.04.605132 +0530,
-50,x,36,0,9,x,1,0.3026889569591731,None,9,0,36,0,,,,,84.28484370798105,,84.27602508297423,84.28484370798105,85.27378374995897,85.27378374995897,85.27378374995897,85.27378374995897,85.27808008296415,86.2737993329647,86.2737993329647,86.58000166696729,x,1,0.3026889569591731,None,,,,,1,001,2025-10-01_10h44.56.774, Motor Sequence Learning,,2025.1.1,None,2025-10-01 10h45.04.605132 +0530,
150,v,37,1,9,v,1,0.24471441598143429,None,9,1,37,1,,,,,86.5896345829824,,86.58054716698825,86.5896345829824,87.5783293749555,87.5783293749555,87.5783293749555,87.5783293749555,87.5783293749555,88.57876620796742,88.57876620796742,88.82511037494987,v,1,0.24471441598143429,None,,,,,1,001,2025-10-01_10h44.56.774, Motor Sequence Learning,,2025.1.1,None,2025-10-01 10h45.04.605132 +0530,
50,c,38,2,9,c,1,0.26183024898637086,None,9,2,38,2,,,,,88.82985137496144,,88.82579812494805,88.82985137496144,89.82364233297994,89.82364233297994,89.82364233297994,89.82364233297994,89.82739308296004,90.8236866669613,90.8236866669613,91.09188454196556,c,1,0.26183024898637086,None,,,,,1,001,2025-10-01_10h44.56.774, Motor Sequence Learning,,2025.1.1,None,2025-10-01 10h45.04.605132 +0530,
-150,z,39,3,9,z,1,0.2770847079809755,None,9,3,39,3,,,,,91.1013087919564,,91.09250766696641,91.1013087919564,92.090334916953,92.090334916953,92.090334916953,92.090334916953,92.09429891698528,93.09041533299023,93.09041533299023,93.37536049995106,z,1,0.2770847079809755,None,,,,,1,001,2025-10-01_10h44.56.774, Motor Sequence Learning,,2025.1.1,None,2025-10-01 10h45.04.605132 +0530,
-50,x,40,0,10,x,1,0.2635508750099689,None,10,0,40,0,,,,,93.38506066700211,,93.3759615419549,93.38506066700211,94.37366887496319,94.37366887496319,94.37366887496319,94.37366887496319,94.37797354196664,95.3737714169547,95.3737714169547,95.64218929194612,x,1,0.2635508750099689,None,,,,,1,001,2025-10-01_10h44.56.774, Motor Sequence Learning,,2025.1.1,None,2025-10-01 10h45.04.605132 +0530,
150,v,41,1,10,v,1,0.2918631660286337,None,10,1,41,1,,,,,95.65174970799126,,95.64274883299368,95.65174970799126,96.64030908298446,96.64030908298446,96.64030908298446,96.64030908298446,96.64462133299094,97.64045274996897,97.64045274996897,97.94197099999292,v,1,0.2918631660286337,None,,,,,1,001,2025-10-01_10h44.56.774, Motor Sequence Learning,,2025.1.1,None,2025-10-01 10h45.04.605132 +0530,
50,c,42,2,10,c,1,0.2729115409892984,None,10,2,42,2,,,,,97.95145333296387,,97.94252116698772,97.95145333296387,98.94043829198927,98.94043829198927,98.94043829198927,98.94043829198927,98.94538854196435,99.94034037500387,99.94034037500387,100.2253218749538,c,1,0.2729115409892984,None,,,,,1,001,2025-10-01_10h44.56.774, Motor Sequence Learning,,2025.1.1,None,2025-10-01 10h45.04.605132 +0530,
-150,z,43,3,10,z,1,0.3035716660087928,None,10,3,43,3,,,,,100.23492287495174,,100.22596062498633,100.23492287495174,101.22365283296676,101.22365283296676,101.22365283296676,101.22365283296676,101.22758908296237,102.2236405419535,102.2236405419535,102.52901629195549,z,1,0.3035716660087928,None,,,,,1,001,2025-10-01_10h44.56.774, Motor Sequence Learning,,2025.1.1,None,2025-10-01 10h45.04.605132 +0530,
-50,x,44,0,11,x,1,0.2918224160093814,None,11,0,44,0,,,,,102.53951204195619,,102.52951812499668,102.53951204195619,103.52791624999372,103.52791624999372,103.52791624999372,103.52791624999372,103.52791624999372,104.52829791698605,104.52829791698605,104.82517520798137,x,1,0.2918224160093814,None,,,,,1,001,2025-10-01_10h44.56.774, Motor Sequence Learning,,2025.1.1,None,2025-10-01 10h45.04.605132 +0530,
150,v,45,1,11,v,1,0.32349525002064183,None,11,1,45,1,,,,,104.83474924997427,,104.82594845799031,104.83474924997427,105.82367908296874,105.82367908296874,105.82367908296874,105.82367908296874,105.82761283300351,106.82362812495558,106.82362812495558,107.15851183299674,v,1,0.32349525002064183,None,,,,,1,001,2025-10-01_10h44.56.774, Motor Sequence Learning,,2025.1.1,None,2025-10-01 10h45.04.605132 +0530,
50,c,46,2,11,c,1,0.2709987080306746,None,11,2,46,2,,,,,107.1679036669666,,107.1591523749521,107.1679036669666,108.15707749995636,108.15707749995636,108.15707749995636,108.15707749995636,108.16109962499468,109.15697079198435,109.15697079198435,109.44194208295085,c,1,0.2709987080306746,None,,,,,1,001,2025-10-01_10h44.56.774, Motor Sequence Learning,,2025.1.1,None,2025-10-01 10h45.04.605132 +0530,
-150,z,47,3,11,z,1,0.2836503740400076,None,11,3,47,3,,,,,109.45139033294981,,109.44252737495117,109.45139033294981,110.44041795795783,110.44041795795783,110.44041795795783,110.44041795795783,110.4454551669769,111.44033616699744,111.44033616699744,111.7292663329863,z,1,0.2836503740400076,None,,,,,1,001,2025-10-01_10h44.56.774, Motor Sequence Learning,,2025.1.1,None,2025-10-01 10h45.04.605132 +0530,
-50,x,48,0,12,x,1,0.27089083299506456,None,12,0,48,0,,,,,111.73995824996382,,111.72980262496276,111.73995824996382,112.7279095419799,112.7279095419799,112.7279095419799,112.7279095419799,112.7279095419799,113.72908437496517,113.72908437496517,114.0088321249932,x,1,0.27089083299506456,None,,,,,1,001,2025-10-01_10h44.56.774, Motor Sequence Learning,,2025.1.1,None,2025-10-01 10h45.04.605132 +0530,
150,v,49,1,12,v,1,0.3260156660107896,None,12,1,49,1,,,,,114.01846716698492,,114.00937445799354,114.01846716698492,115.00679354195017,115.00679354195017,115.00679354195017,115.00679354195017,115.01111908297753,116.0068676249939,116.0068676249939,116.3421978749684,v,1,0.3260156660107896,None,,,,,1,001,2025-10-01_10h44.56.774, Motor Sequence Learning,,2025.1.1,None,2025-10-01 10h45.04.605132 +0530,
50,c,50,2,12,c,1,0.478598540998064,None,12,2,50,2,,,,,116.35201429197332,,116.34279404196423,116.35201429197332,117.34034820797388,117.34034820797388,117.34034820797388,117.34034820797388,117.34458008297952,118.34026899997843,118.34026899997843,118.82519399997545,c,1,0.478598540998064,None,,,,,1,001,2025-10-01_10h44.56.774, Motor Sequence Learning,,2025.1.1,None,2025-10-01 10h45.04.605132 +0530,
-150,z,51,3,12,z,1,0.3602937500108965,None,12,3,51,3,,,,,118.83466112497263,,118.82583904196508,118.83466112497263,119.82368512498215,119.82368512498215,119.82368512498215,119.82368512498215,119.82816387497587,120.82355670799734,120.82355670799734,121.1918563329964,z,1,0.3602937500108965,None,,,,,1,001,2025-10-01_10h44.56.774, Motor Sequence Learning,,2025.1.1,None,2025-10-01 10h45.04.605132 +0530,
-50,x,52,0,13,x,1,0.38639116601552814,None,13,0,52,0,,,,,121.20167291699909,,121.1925199169782,121.20167291699909,122.19029249995947,122.19029249995947,122.19029249995947,122.19029249995947,122.1943901249906,123.19030379195465,123.19030379195465,123.57955341698835,x,1,0.38639116601552814,None,,,,,1,001,2025-10-01_10h44.56.774, Motor Sequence Learning,,2025.1.1,None,2025-10-01 10h45.04.605132 +0530,
150,v,53,1,13,v,1,0.34903362498153,None,13,1,53,1,,,,,123.59514987497823,,123.58007774996804,123.59514987497823,124.5783600829891,124.5783600829891,124.5783600829891,124.5783600829891,124.59027612500358,125.57964587496826,125.57964587496826,125.94205520796822,v,1,0.34903362498153,None,,,,,1,001,2025-10-01_10h44.56.774, Motor Sequence Learning,,2025.1.1,None,2025-10-01 10h45.04.605132 +0530,
50,c,54,2,13,c,1,0.2842385830008425,None,13,2,54,2,,,,,125.95027104194742,,125.94259845797205,125.95027104194742,126.94030308298534,126.94030308298534,126.94030308298534,126.94030308298534,126.94483008299721,127.94040591694647,127.94040591694647,128.23020766698755,c,1,0.2842385830008425,None,,,,,1,001,2025-10-01_10h44.56.774, Motor Sequence Learning,,2025.1.1,None,2025-10-01 10h45.04.605132 +0530,
-150,z,55,3,13,z,1,0.30403216602280736,None,13,3,55,3,,,,,128.2395163749461,,128.23076299997047,128.2395163749461,129.22846904199105,129.22846904199105,129.22846904199105,129.22846904199105,129.22846904199105,130.2295158749912,130.2295158749912,130.5421522919787,z,1,0.30403216602280736,None,,,,,1,001,2025-10-01_10h44.56.774, Motor Sequence Learning,,2025.1.1,None,2025-10-01 10h45.04.605132 +0530,
-50,x,56,0,14,x,1,0.2910795410280116,None,14,0,56,0,,,,,130.55072283296613,,130.54271037498256,130.55072283296613,131.5402794999536,131.5402794999536,131.5402794999536,131.5402794999536,131.54457483295118,132.5403940419783,132.5403940419783,132.84208262496395,x,1,0.2910795410280116,None,,,,,1,001,2025-10-01_10h44.56.774, Motor Sequence Learning,,2025.1.1,None,2025-10-01 10h45.04.605132 +0530,
150,v,57,1,14,v,1,0.32618029101286083,None,14,1,57,1,,,,,132.85069362499053,,132.84263866697438,132.85069362499053,133.8404154169839,133.8404154169839,133.8404154169839,133.8404154169839,133.8451781249605,134.84035108296666,134.84035108296666,135.175379082968,v,1,0.32618029101286083,None,,,,,1,001,2025-10-01_10h44.56.774, Motor Sequence Learning,,2025.1.1,None,2025-10-01 10h45.04.605132 +0530,
50,c,58,2,14,c,1,0.2717353330226615,None,14,2,58,2,,,,,135.18400675000157,,135.17597495799419,135.18400675000157,136.173580667004,136.173580667004,136.173580667004,136.173580667004,136.17780725000193,137.17367087496677,137.17367087496677,137.45835616695695,c,1,0.2717353330226615,None,,,,,1,001,2025-10-01_10h44.56.774, Motor Sequence Learning,,2025.1.1,None,2025-10-01 10h45.04.605132 +0530,
-150,z,59,3,14,z,1,0.32545358198694885,None,14,3,59,3,,,,,137.46687816694612,,137.45905049995054,137.46687816694612,138.45700691698585,138.45700691698585,138.45700691698585,138.45700691698585,138.46108512498904,139.45694312499836,139.45694312499836,139.79226416698657,z,1,0.32545358198694885,None,,,,,1,001,2025-10-01_10h44.56.774, Motor Sequence Learning,,2025.1.1,None,2025-10-01 10h45.04.605132 +0530,
-50,x,60,0,15,x,1,0.2480449159629643,None,15,0,60,0,,,,,139.80092258297373,,139.79301087500062,139.80092258297373,140.79018195800018,140.79018195800018,140.79018195800018,140.79018195800018,140.79423233296257,141.79025999997975,141.79025999997975,142.04213541699573,x,1,0.2480449159629643,None,,,,,1,001,2025-10-01_10h44.56.774, Motor Sequence Learning,,2025.1.1,None,2025-10-01 10h45.04.605132 +0530,
150,v,61,1,15,v,1,0.2951083740335889,None,15,1,61,1,,,,,142.0505648329854,,142.04268341697752,142.0505648329854,143.04028899996774,143.04028899996774,143.04028899996774,143.04028899996774,143.04447870794684,144.04018379194895,144.04018379194895,144.34206066699699,v,1,0.2951083740335889,None,,,,,1,001,2025-10-01_10h44.56.774, Motor Sequence Learning,,2025.1.1,None,2025-10-01 10h45.04.605132 +0530,
50,c,62,2,15,c,1,0.26290958299068734,None,15,2,62,2,,,,,144.3506904579699,,144.34263937495416,144.3506904579699,145.34039483295055,145.34039483295055,145.34039483295055,145.34039483295055,145.3446046669851,146.34030916698975,146.34030916698975,146.60872379195644,c,1,0.26290958299068734,None,,,,,1,001,2025-10-01_10h44.56.774, Motor Sequence Learning,,2025.1.1,None,2025-10-01 10h45.04.605132 +0530,
-150,z,63,3,15,z,1,0.2962630409747362,None,15,3,63,3,,,,,146.6173679579515,,146.60927095799707,146.6173679579515,147.60687320795842,147.60687320795842,147.60687320795842,147.60687320795842,147.61120154196396,148.60699800000293,148.60699800000293,148.90891804196872,z,1,0.2962630409747362,None,,,,,1,001,2025-10-01_10h44.56.774, Motor Sequence Learning,,2025.1.1,None,2025-10-01 10h45.04.605132 +0530,
-50,x,64,0,16,x,1,0.25224524998338893,None,16,0,64,0,,,,,148.91771641699597,,148.90958220796892,148.91771641699597,149.90698704199167,149.90698704199167,149.90698704199167,149.90698704199167,149.91169174999231,150.90688112500357,150.90688112500357,151.16220724995947,x,1,0.25224524998338893,None,,,,,1,001,2025-10-01_10h44.56.774, Motor Sequence Learning,,2025.1.1,None,2025-10-01 10h45.04.605132 +0530,
150,v,65,1,16,v,1,0.31518308201339096,None,16,1,65,1,,,,,151.17357895796886,,151.1627207499696,151.17357895796886,152.16158629197162,152.16158629197162,152.16158629197162,152.16158629197162,152.16158629197162,153.15688574995147,153.15688574995147,153.4754657499725,v,1,0.31518308201339096,None,,,,,1,001,2025-10-01_10h44.56.774, Motor Sequence Learning,,2025.1.1,None,2025-10-01 10h45.04.605132 +0530,
50,c,66,2,16,c,1,0.32234437501756474,None,16,2,66,2,,,,,153.48404237499926,,153.4760502499994,153.48404237499926,154.47355220798636,154.47355220798636,154.47355220798636,154.47355220798636,154.47804520797217,155.47365374997025,155.47365374997025,155.80896487500286,c,1,0.32234437501756474,None,,,,,1,001,2025-10-01_10h44.56.774, Motor Sequence Learning,,2025.1.1,None,2025-10-01 10h45.04.605132 +0530,
-150,z,67,3,16,z,1,0.28502487402874976,None,16,3,67,3,,,,,155.81760937499348,,155.80954741698224,155.81760937499348,156.8069434170029,156.8069434170029,156.8069434170029,156.8069434170029,156.81148179195588,157.80698487500194,157.80698487500194,158.0957993749762,z,1,0.28502487402874976,None,,,,,1,001,2025-10-01_10h44.56.774, Motor Sequence Learning,,2025.1.1,None,2025-10-01 10h45.04.605132 +0530,
-50,x,68,0,17,x,1,0.28167037398088723,None,17,0,68,0,,,,,158.10671683296096,,158.09633874997962,158.10671683296096,159.0943026249879,159.0943026249879,159.0943026249879,159.0943026249879,159.0943026249879,160.09025675000157,160.09025675000157,160.37546333298087,x,1,0.28167037398088723,None,,,,,1,001,2025-10-01_10h44.56.774, Motor Sequence Learning,,2025.1.1,None,2025-10-01 10h45.04.605132 +0530,
150,v,69,1,17,v,1,0.27228208299493417,None,17,1,69,1,,,,,160.38400837499648,,160.37603808299173,160.38400837499648,161.37352216697764,161.37352216697764,161.37352216697764,161.37352216697764,161.3780489579658,162.37362349999603,162.37362349999603,162.6585540829692,v,1,0.27228208299493417,None,,,,,1,001,2025-10-01_10h44.56.774, Motor Sequence Learning,,2025.1.1,None,2025-10-01 10h45.04.605132 +0530,
50,c,70,2,17,c,1,0.30388595699332654,None,17,2,70,2,,,,,162.6668134169886,,162.65918349998537,162.6668134169886,163.65702354197856,163.65702354197856,163.65702354197856,163.65702354197856,163.66176495800028,164.6568536249688,164.6568536249688,164.97408737498336,c,1,0.30388595699332654,None,,,,,1,001,2025-10-01_10h44.56.774, Motor Sequence Learning,,2025.1.1,None,2025-10-01 10h45.04.605132 +0530,
-150,z,71,3,17,z,1,0.28683462500339374,None,17,3,71,3,,,,,164.97862004197668,,164.97459208295913,164.97862004197668,165.9612015419989,165.9612015419989,165.9612015419989,165.9612015419989,165.9735563749564,166.96288620796986,166.96288620796986,167.25832220795564,z,1,0.28683462500339374,None,,,,,1,001,2025-10-01_10h44.56.774, Motor Sequence Learning,,2025.1.1,None,2025-10-01 10h45.04.605132 +0530,
-50,x,72,0,18,x,1,0.25280795799335465,None,18,0,72,0,,,,,167.2670356669696,,167.25895662495168,167.2670356669696,168.25681045796955,168.25681045796955,168.25681045796955,168.25681045796955,168.26076716696844,169.25691008300055,169.25691008300055,169.51278945797822,x,1,0.25280795799335465,None,,,,,1,001,2025-10-01_10h44.56.774, Motor Sequence Learning,,2025.1.1,None,2025-10-01 10h45.04.605132 +0530,
150,v,73,1,18,v,1,0.3142239569569938,None,18,1,73,1,,,,,169.52273945795605,,169.51333141699433,169.52273945795605,170.51207741699181,170.51207741699181,170.51207741699181,170.51207741699181,170.51207741699181,171.51245770795504,171.51245770795504,171.8283540830016,v,1,0.3142239569569938,None,,,,,1,001,2025-10-01_10h44.56.774, Motor Sequence Learning,,2025.1.1,None,2025-10-01 10h45.04.605132 +0530,
50,c,74,2,18,c,1,0.30204404098913074,None,18,2,74,2,,,,,171.84000716696028,,171.82888862496475,171.84000716696028,172.82357924996177,172.82357924996177,172.82357924996177,172.82357924996177,172.8283264999627,173.8234393329476,173.8234393329476,174.12912379199406,c,1,0.30204404098913074,None,,,,,1,001,2025-10-01_10h44.56.774, Motor Sequence Learning,,2025.1.1,None,2025-10-01 10h45.04.605132 +0530,
-150,z,75,3,18,z,1,0.3167082489817403,None,18,3,75,3,,,,,174.1394266669522,,174.12967641698197,174.1394266669522,175.12828508298844,175.12828508298844,175.12828508298844,175.12828508298844,175.12828508298844,176.1278931669658,176.1278931669658,176.44651991699357,z,1,0.3167082489817403,None,,,,,1,001,2025-10-01_10h44.56.774, Motor Sequence Learning,,2025.1.1,None,2025-10-01 10h45.04.605132 +0530,
-50,x,76,0,19,x,1,0.31776254100259393,None,19,0,76,0,,,,,176.45585404196754,,176.4469867919688,176.45585404196754,177.4447579169646,177.4447579169646,177.4447579169646,177.4447579169646,177.4447579169646,178.44581441697665,178.44581441697665,178.77556545799598,x,1,0.31776254100259393,None,,,,,1,001,2025-10-01_10h44.56.774, Motor Sequence Learning,,2025.1.1,None,2025-10-01 10h45.04.605132 +0530,
150,v,77,1,19,v,1,0.29001670802244917,None,19,1,77,1,,,,,178.78436308295932,,178.77614074997837,178.78436308295932,179.77361312496942,179.77361312496942,179.77361312496942,179.77361312496942,179.7778781669913,180.77355079195695,180.77355079195695,181.07564191694837,v,1,0.29001670802244917,None,,,,,1,001,2025-10-01_10h44.56.774, Motor Sequence Learning,,2025.1.1,None,2025-10-01 10h45.04.605132 +0530,
50,c,78,2,19,c,1,0.23481049900874496,None,19,2,78,2,,,,,181.0845120419981,,181.0762105419999,181.0845120419981,182.07364399998914,182.07364399998914,182.07364399998914,182.07364399998914,182.07787537499098,183.0734656249988,183.0734656249988,183.31341820798116,c,1,0.23481049900874496,None,,,,,1,001,2025-10-01_10h44.56.774, Motor Sequence Learning,,2025.1.1,None,2025-10-01 10h45.04.605132 +0530,
-150,z,79,3,19,z,1,0.278057333023753,None,19,3,79,3,,,,,183.32256579195382,,183.3139384999522,183.32256579195382,184.31143987498945,184.31143987498945,184.31143987498945,184.31143987498945,184.31143987498945,185.3122499579913,185.3122499579913,185.59582879196387,z,1,0.278057333023753,None,,,,,1,001,2025-10-01_10h44.56.774, Motor Sequence Learning,,2025.1.1,None,2025-10-01 10h45.04.605132 +0530,
-50,x,80,0,20,x,1,0.30155183299211785,None,20,0,80,0,,,,,185.6065855419729,,185.59634429198923,185.6065855419729,186.59433004196035,186.59433004196035,186.59433004196035,186.59433004196035,186.59433004196035,187.59483262494905,187.59483262494905,187.90881274995627,x,1,0.30155183299211785,None,,,,,1,001,2025-10-01_10h44.56.774, Motor Sequence Learning,,2025.1.1,None,2025-10-01 10h45.04.605132 +0530,
150,v,81,1,20,v,1,0.48444033303530887,None,20,1,81,1,,,,,187.9175573749817,,187.90937324997503,187.9175573749817,188.90684524999233,188.90684524999233,188.90684524999233,188.90684524999233,188.91140762495343,189.9067308329977,189.9067308329977,190.39595799997915,v,1,0.48444033303530887,None,,,,,1,001,2025-10-01_10h44.56.774, Motor Sequence Learning,,2025.1.1,None,2025-10-01 10h45.04.605132 +0530,
50,c,82,2,20,c,1,0.24320537399034947,None,20,2,82,2,,,,,190.40619883296313,,190.39649487496354,190.40619883296313,191.3942197499564,191.3942197499564,191.3942197499564,191.3942197499564,191.3942197499564,192.39503729197895,192.39503729197895,192.64246524998453,c,1,0.24320537399034947,None,,,,,1,001,2025-10-01_10h44.56.774, Motor Sequence Learning,,2025.1.1,None,2025-10-01 10h45.04.605132 +0530,
-150,z,83,3,20,z,1,0.27315370697760954,None,20,3,83,3,,,,,192.6513754579937,,192.64304333296604,192.6513754579937,193.64026937499875,193.64026937499875,193.64026937499875,193.64026937499875,193.64482070796657,194.64009145798627,194.64009145798627,194.92522391700186,z,1,0.27315370697760954,None,,,,,1,001,2025-10-01_10h44.56.774, Motor Sequence Learning,,2025.1.1,None,2025-10-01 10h45.04.605132 +0530,
-50,x,84,0,21,x,1,0.2816182490205392,None,21,0,84,0,,,,,194.93394670798443,,194.9257989169564,194.93394670798443,195.923483749968,195.923483749968,195.923483749968,195.923483749968,195.9276872499613,196.9235447079991,196.9235447079991,197.20869304199005,x,1,0.2816182490205392,None,,,,,1,001,2025-10-01_10h44.56.774, Motor Sequence Learning,,2025.1.1,None,2025-10-01 10h45.04.605132 +0530,
150,v,85,1,21,v,1,0.3453106239903718,None,21,1,85,1,,,,,197.21773966698674,,197.20927541697165,197.21773966698674,198.20679291698616,198.20679291698616,198.20679291698616,198.20679291698616,198.2113798329956,199.20687370799715,199.20687370799715,199.55836133297998,v,1,0.3453106239903718,None,,,,,1,001,2025-10-01_10h44.56.774, Motor Sequence Learning,,2025.1.1,None,2025-10-01 10h45.04.605132 +0530,
50,c,86,2,21,c,1,0.24029391596559435,None,21,2,86,2,,,,,199.5670280829654,,199.5590179169667,199.5670280829654,200.55668662500102,200.55668662500102,200.55668662500102,200.55668662500102,200.56103870796505,201.55678754195105,201.55678754195105,201.80888604198117,c,1,0.24029391596559435,None,,,,,1,001,2025-10-01_10h44.56.774, Motor Sequence Learning,,2025.1.1,None,2025-10-01 10h45.04.605132 +0530,
-150,z,87,3,21,z,1,0.2502804580144584,None,21,3,87,3,,,,,201.81801120797172,,201.80950879195007,201.81801120797172,202.80682691698894,202.80682691698894,202.80682691698894,202.80682691698894,202.81138312496478,203.8067339999834,203.8067339999834,204.06294033298036,z,1,0.2502804580144584,None,,,,,1,001,2025-10-01_10h44.56.774, Motor Sequence Learning,,2025.1.1,None,2025-10-01 10h45.04.605132 +0530,
-50,x,88,0,22,x,1,0.3185221659950912,None,22,0,88,0,,,,,204.0724972919561,,204.06346220796695,204.0724972919561,205.06143424997572,205.06143424997572,205.06143424997572,205.06143424997572,205.06143424997572,206.06146566697862,206.06146566697862,206.39194295799825,x,1,0.3185221659950912,None,,,,,1,001,2025-10-01_10h44.56.774, Motor Sequence Learning,,2025.1.1,None,2025-10-01 10h45.04.605132 +0530,
150,v,89,1,22,v,1,0.2727512909914367,None,22,1,89,1,,,,,206.40049262496177,,206.39251874998445,206.40049262496177,207.39024083298864,207.39024083298864,207.39024083298864,207.39024083298864,207.3949213749729,208.39010266697733,208.39010266697733,208.67560679197777,v,1,0.2727512909914367,None,,,,,1,001,2025-10-01_10h44.56.774, Motor Sequence Learning,,2025.1.1,None,2025-10-01 10h45.04.605132 +0530,
50,c,90,2,22,c,1,0.23518333199899644,None,22,2,90,2,,,,,208.6845027919626,,208.67619974998524,208.6845027919626,209.67353891697712,209.67353891697712,209.67353891697712,209.67353891697712,209.67793441697722,210.6736380419461,210.6736380419461,210.91279758297605,c,1,0.23518333199899644,None,,,,,1,001,2025-10-01_10h44.56.774, Motor Sequence Learning,,2025.1.1,None,2025-10-01 10h45.04.605132 +0530,
-150,z,91,3,22,z,1,0.2952667489880696,None,22,3,91,3,,,,,210.92262212495552,,210.91333591699367,210.92262212495552,211.9114319169894,211.9114319169894,211.9114319169894,211.9114319169894,211.9114319169894,212.912552166963,212.912552166963,213.21380562498234,z,1,0.2952667489880696,None,,,,,1,001,2025-10-01_10h44.56.774, Motor Sequence Learning,,2025.1.1,None,2025-10-01 10h45.04.605132 +0530,
-50,x,92,0,23,x,1,0.6446012490196154,None,23,0,92,0,,,,,213.22289237496443,,213.2143383329967,213.22289237496443,214.21107408299576,214.21107408299576,214.21107408299576,214.21107408299576,214.21107408299576,215.21216329198796,215.21216329198796,215.86352195800282,x,1,0.6446012490196154,None,,,,,1,001,2025-10-01_10h44.56.774, Motor Sequence Learning,,2025.1.1,None,2025-10-01 10h45.04.605132 +0530,
150,v,93,1,23,v,1,0.35811729094712064,None,23,1,93,1,,,,,215.87272070796462,,215.86402099998668,215.87272070796462,216.86148183298064,216.86148183298064,216.86148183298064,216.86148183298064,216.86148183298064,217.86158795800293,217.86158795800293,218.2254032919882,v,1,0.35811729094712064,None,,,,,1,001,2025-10-01_10h44.56.774, Motor Sequence Learning,,2025.1.1,None,2025-10-01 10h45.04.605132 +0530,
50,c,94,2,23,c,1,0.37230912497034296,None,23,2,94,2,,,,,218.2344796669786,,218.22620833298424,218.2344796669786,219.22333670797525,219.22333670797525,219.22333670797525,219.22333670797525,219.22677404194837,220.22344212495955,220.22344212495955,220.60872087499592,c,1,0.37230912497034296,None,,,,,1,001,2025-10-01_10h44.56.774, Motor Sequence Learning,,2025.1.1,None,2025-10-01 10h45.04.605132 +0530,
-150,z,95,3,23,z,1,0.32882462500128895,None,23,3,95,3,,,,,220.61706716695335,,220.60928770795,220.61706716695335,221.6068174999673,221.6068174999673,221.6068174999673,221.6068174999673,221.6114050829783,222.60686979198363,222.60686979198363,222.94210008298978,z,1,0.32882462500128895,None,,,,,1,001,2025-10-01_10h44.56.774, Motor Sequence Learning,,2025.1.1,None,2025-10-01 10h45.04.605132 +0530,
-50,x,96,0,24,x,1,0.2885036239749752,None,24,0,96,0,,,,,222.95042266696692,,222.94268624996766,222.95042266696692,223.9401677499991,223.9401677499991,223.9401677499991,223.9401677499991,223.94441566697787,224.94005899998592,224.94005899998592,225.2422411669977,x,1,0.2885036239749752,None,,,,,1,001,2025-10-01_10h44.56.774, Motor Sequence Learning,,2025.1.1,None,2025-10-01 10h45.04.605132 +0530,
150,v,97,1,24,v,1,0.2732682909700088,None,24,1,97,1,,,,,225.25124258297728,,225.24298687500414,225.25124258297728,226.24006804195233,226.24006804195233,226.24006804195233,226.24006804195233,226.2445309169707,227.24016354198102,227.24016354198102,227.52504933299497,v,1,0.2732682909700088,None,,,,,1,001,2025-10-01_10h44.56.774, Motor Sequence Learning,,2025.1.1,None,2025-10-01 10h45.04.605132 +0530,
50,c,98,2,24,c,1,0.29617124900687486,None,24,2,98,2,,,,,227.5331099999603,,227.5256273749983,227.5331099999603,228.52347287494922,228.52347287494922,228.52347287494922,228.52347287494922,228.52759737498127,229.5233509579557,229.5233509579557,229.82514708297094,c,1,0.29617124900687486,None,,,,,1,001,2025-10-01_10h44.56.774, Motor Sequence Learning,,2025.1.1,None,2025-10-01 10h45.04.605132 +0530,
-150,z,99,3,24,z,1,0.2718062490457669,None,24,3,99,3,,,,,229.83348820795072,,229.82578524999553,229.83348820795072,230.8234654169646,230.8234654169646,230.8234654169646,230.8234654169646,230.82795070798602,231.82358399999794,231.82358399999794,232.10907349997433,z,1,0.2718062490457669,None,,,,,1,001,2025-10-01_10h44.56.774, Motor Sequence Learning,,2025.1.1,None,2025-10-01 10h45.04.605132 +0530,
-50,x,100,0,25,x,1,0.27961579099064693,None,25,0,100,0,,,,,232.1202062079683,,232.10983320797095,232.1202062079683,233.10680479195435,233.10680479195435,233.10680479195435,233.10680479195435,233.1114720829646,234.10681895795278,234.10681895795278,234.3917684169719,x,1,0.27961579099064693,None,,,,,1,001,2025-10-01_10h44.56.774, Motor Sequence Learning,,2025.1.1,None,2025-10-01 10h45.04.605132 +0530,
150,v,101,1,25,v,1,0.27419137401739135,None,25,1,101,1,,,,,234.40174162498442,,234.3924131669919,234.40174162498442,235.38998883299064,235.38998883299064,235.38998883299064,235.38998883299064,235.39443058299366,236.39009062497644,236.39009062497644,236.67526062496472,v,1,0.27419137401739135,None,,,,,1,001,2025-10-01_10h44.56.774, Motor Sequence Learning,,2025.1.1,None,2025-10-01 10h45.04.605132 +0530,
50,c,102,2,25,c,1,0.27986179100116715,None,25,2,102,2,,,,,236.68545658298535,,236.67582495795796,236.68545658298535,237.67340666695964,237.67340666695964,237.67340666695964,237.67340666695964,237.6778817079612,238.673485916981,238.673485916981,238.95837554195896,c,1,0.27986179100116715,None,,,,,1,001,2025-10-01_10h44.56.774, Motor Sequence Learning,,2025.1.1,None,2025-10-01 10h45.04.605132 +0530,
-150,z,103,3,25,z,1,0.26262158196186647,None,25,3,103,3,,,,,238.96854308299953,,238.95903216698207,238.96854308299953,239.9568073329865,239.9568073329865,239.9568073329865,239.9568073329865,239.96109262498794,240.9566564579727,240.9566564579727,241.22508620796725,z,1,0.26262158196186647,None,,,,,1,001,2025-10-01_10h44.56.774, Motor Sequence Learning,,2025.1.1,None,2025-10-01 10h45.04.605132 +0530,
-50,x,104,0,26,x,1,0.2907301659579389,None,26,0,104,0,,,,,241.23499974998413,,241.22571279195836,241.23499974998413,242.2233092499664,242.2233092499664,242.2233092499664,242.2233092499664,242.22734433296137,243.22339224995812,243.22339224995812,243.52525137498742,x,1,0.2907301659579389,None,,,,,1,001,2025-10-01_10h44.56.774, Motor Sequence Learning,,2025.1.1,None,2025-10-01 10h45.04.605132 +0530,
150,v,105,1,26,v,1,0.27279883302981034,None,26,1,105,1,,,,,243.53508162498474,,243.52579316694755,243.53508162498474,244.52340612496482,244.52340612496482,244.52340612496482,244.52340612496482,244.52749887498794,245.52333287498914,245.52333287498914,245.80863545800094,v,1,0.27279883302981034,None,,,,,1,001,2025-10-01_10h44.56.774, Motor Sequence Learning,,2025.1.1,None,2025-10-01 10h45.04.605132 +0530,
50,c,106,2,26,c,1,0.30360912502510473,None,26,2,106,2,,,,,245.81862379197264,,245.80919683299726,245.81862379197264,246.80684879195178,246.80684879195178,246.80684879195178,246.80684879195178,246.8120351669495,247.80668212496676,247.80668212496676,248.1126829579589,c,1,0.30360912502510473,None,,,,,1,001,2025-10-01_10h44.56.774, Motor Sequence Learning,,2025.1.1,None,2025-10-01 10h45.04.605132 +0530,
-150,z,107,3,26,z,1,0.29131070798030123,None,26,3,107,3,,,,,248.12277708295733,,248.11323174997233,248.12277708295733,249.11189133295557,249.11189133295557,249.11189133295557,249.11189133295557,249.11189133295557,250.1116616249783,250.1116616249783,250.4087859999854,z,1,0.29131070798030123,None,,,,,1,001,2025-10-01_10h44.56.774, Motor Sequence Learning,,2025.1.1,None,2025-10-01 10h45.04.605132 +0530,
-50,x,108,0,27,x,1,0.2930146249709651,None,27,0,108,0,,,,,250.41866774996743,,250.4093682919629,250.41866774996743,251.4068164579803,251.4068164579803,251.4068164579803,251.4068164579803,251.41126949997852,252.40696154197212,252.40696154197212,252.70855383295566,x,1,0.2930146249709651,None,,,,,1,001,2025-10-01_10h44.56.774, Motor Sequence Learning,,2025.1.1,None,2025-10-01 10h45.04.605132 +0530,
150,v,109,1,27,v,1,0.36599995696451515,None,27,1,109,1,,,,,252.71853537496645,,252.70915112498915,252.71853537496645,253.70669037499465,253.70669037499465,253.70669037499465,253.70669037499465,253.71134108299157,254.70685345795937,254.70685345795937,255.07560108299367,v,1,0.36599995696451515,None,,,,,1,001,2025-10-01_10h44.56.774, Motor Sequence Learning,,2025.1.1,None,2025-10-01 10h45.04.605132 +0530,
50,c,110,2,27,c,1,0.5504866249975748,None,27,2,110,2,,,,,255.08560287498403,,255.07618316699518,255.08560287498403,256.0734980419511,256.0734980419511,256.0734980419511,256.0734980419511,256.07844166696304,257.07339487498393,257.07339487498393,257.6291862499784,c,1,0.5504866249975748,None,,,,,1,001,2025-10-01_10h44.56.774, Motor Sequence Learning,,2025.1.1,None,2025-10-01 10h45.04.605132 +0530,
-150,z,111,3,27,x,0,0.31338862399570644,None,27,3,111,3,,,,,257.63929762499174,,257.629730207962,257.63929762499174,258.62800308299484,258.62800308299484,258.62800308299484,258.62800308299484,258.62800308299484,259.62939099996584,259.62939099996584,259.9464699999662,x,0,0.31338862399570644,None,,,,,1,001,2025-10-01_10h44.56.774, Motor Sequence Learning,,2025.1.1,None,2025-10-01 10h45.04.605132 +0530,
-50,x,112,0,28,x,1,0.3529693739837967,None,28,0,112,0,,,,,259.9562955419533,,259.9470146249514,259.9562955419533,260.94458737497916,260.94458737497916,260.94458737497916,260.94458737497916,260.94458737497916,261.9457551249652,261.9457551249652,262.3088430829812,x,1,0.3529693739837967,None,,,,,1,001,2025-10-01_10h44.56.774, Motor Sequence Learning,,2025.1.1,None,2025-10-01 10h45.04.605132 +0530,
150,v,113,1,28,v,1,0.4082306239870377,None,28,1,113,1,,,,,262.31909779197304,,262.3094450829667,262.31909779197304,263.3065886249533,263.3065886249533,263.3065886249533,263.3065886249533,263.31105679197935,264.3066727919504,264.3066727919504,264.7256592499907,v,1,0.4082306239870377,None,,,,,1,001,2025-10-01_10h44.56.774, Motor Sequence Learning,,2025.1.1,None,2025-10-01 10h45.04.605132 +0530,
50,c,114,2,28,c,1,0.2672159160138108,None,28,2,114,2,,,,,264.73554341698764,,264.7262362499605,264.73554341698764,265.72332433296833,265.72332433296833,265.72332433296833,265.72332433296833,265.7275731669506,266.72332654194906,266.72332654194906,266.9960022919695,c,1,0.2672159160138108,None,,,,,1,001,2025-10-01_10h44.56.774, Motor Sequence Learning,,2025.1.1,None,2025-10-01 10h45.04.605132 +0530,
-150,z,115,3,28,z,1,0.280530083051417,None,28,3,115,3,,,,,267.0057326249662,,266.99656379199587,267.0057326249662,267.9948731249897,267.9948731249897,267.9948731249897,267.9948731249897,267.9948731249897,268.9960799579858,268.9960799579858,269.2793527499889,z,1,0.280530083051417,None,,,,,1,001,2025-10-01_10h44.56.774, Motor Sequence Learning,,2025.1.1,None,2025-10-01 10h45.04.605132 +0530,
-50,x,116,0,29,x,1,0.29411891603376716,None,29,0,116,0,,,,,269.28942537499825,,269.2799270830001,269.28942537499825,270.27797145798104,270.27797145798104,270.27797145798104,270.27797145798104,270.27797145798104,271.27836179197766,271.27836179197766,271.5752424999955,x,1,0.29411891603376716,None,,,,,1,001,2025-10-01_10h44.56.774, Motor Sequence Learning,,2025.1.1,None,2025-10-01 10h45.04.605132 +0530,
150,v,117,1,29,v,1,0.29413129098247737,None,29,1,117,1,,,,,271.58425487496424,,271.575800874969,271.58425487496424,272.5733624169952,272.5733624169952,272.5733624169952,272.5733624169952,272.5777953329962,273.57340966694755,273.57340966694755,273.8753620829666,v,1,0.29413129098247737,None,,,,,1,001,2025-10-01_10h44.56.774, Motor Sequence Learning,,2025.1.1,None,2025-10-01 10h45.04.605132 +0530,
50,c,118,2,29,c,1,0.5148973329924047,None,29,2,118,2,,,,,273.8853243329795,,273.87596120795934,273.8853243329795,274.8732278329553,274.8732278329553,274.8732278329553,274.8732278329553,274.8776782079949,275.8733400419587,275.8733400419587,276.39163404196734,c,1,0.5148973329924047,None,,,,,1,001,2025-10-01_10h44.56.774, Motor Sequence Learning,,2025.1.1,None,2025-10-01 10h45.04.605132 +0530,
-150,z,119,3,29,z,1,0.3284827909665182,None,29,3,119,3,,,,,276.4004871249781,,276.39227354194736,276.4004871249781,277.39001695800107,277.39001695800107,277.39001695800107,277.39001695800107,277.39482137496816,278.3899939999683,278.3899939999683,278.72492270800285,z,1,0.3284827909665182,None,,,,,1,001,2025-10-01_10h44.56.774, Motor Sequence Learning,,2025.1.1,None,2025-10-01 10h45.04.605132 +0530,
-50,x,120,0,30,x,1,0.28864591603633016,None,30,0,120,0,,,,,278.7338159579667,,278.7255530830007,278.7338159579667,279.72332245798316,279.72332245798316,279.72332245798316,279.72332245798316,279.72719187499024,280.723160249996,280.723160249996,281.0249095829786,x,1,0.28864591603633016,None,,,,,1,001,2025-10-01_10h44.56.774, Motor Sequence Learning,,2025.1.1,None,2025-10-01 10h45.04.605132 +0530,
150,v,121,1,30,v,1,0.3165218320209533,None,30,1,121,1,,,,,281.0339057499659,,281.02552016696427,281.0339057499659,282.0231499169604,282.0231499169604,282.0231499169604,282.0231499169604,282.027658624982,283.02329637500225,283.02329637500225,283.34240212495206,v,1,0.3165218320209533,None,,,,,1,001,2025-10-01_10h44.56.774, Motor Sequence Learning,,2025.1.1,None,2025-10-01 10h45.04.605132 +0530,
50,c,122,2,30,c,1,0.2853422079933807,None,30,2,122,2,,,,,283.35136749997037,,283.3429739999701,283.35136749997037,284.34001874999376,284.34001874999376,284.34001874999376,284.34001874999376,284.3446046249592,285.3398836669512,285.3398836669512,285.6290399999707,c,1,0.2853422079933807,None,,,,,1,001,2025-10-01_10h44.56.774, Motor Sequence Learning,,2025.1.1,None,2025-10-01 10h45.04.605132 +0530,
-150,z,123,3,30,z,1,0.32992891600588337,None,30,3,123,3,,,,,285.6391832079971,,285.62958112498745,285.6391832079971,286.6279807499959,286.6279807499959,286.6279807499959,286.6279807499959,286.6279807499959,287.6292497079703,287.6292497079703,287.96210770797916,z,1,0.32992891600588337,None,,,,,1,001,2025-10-01_10h44.56.774, Motor Sequence Learning,,2025.1.1,None,2025-10-01 10h45.04.605132 +0530,
-50,x,124,0,31,x,1,0.3197484990232624,None,31,0,124,0,,,,,287.9727191669517,,287.9626415829989,287.9727191669517,288.9628578329575,288.9628578329575,288.9628578329575,288.9628578329575,288.9628578329575,289.96142133296235,289.96142133296235,290.291659666982,x,1,0.3197484990232624,None,,,,,1,001,2025-10-01_10h44.56.774, Motor Sequence Learning,,2025.1.1,None,2025-10-01 10h45.04.605132 +0530,
150,v,125,1,31,v,1,0.29211741604376584,None,31,1,125,1,,,,,290.30070004198933,,290.2922814999474,290.30070004198933,291.28992816695245,291.28992816695245,291.28992816695245,291.28992816695245,291.29388204199495,292.2900267079822,292.2900267079822,292.59181687497767,v,1,0.29211741604376584,None,,,,,1,001,2025-10-01_10h44.56.774, Motor Sequence Learning,,2025.1.1,None,2025-10-01 10h45.04.605132 +0530,
50,c,126,2,31,c,1,0.2640576659468934,None,31,2,126,2,,,,,292.6020112079568,,292.5923915419844,292.6020112079568,293.5900227079983,293.5900227079983,293.5900227079983,293.5900227079983,293.5940955829574,294.5899394999724,294.5899394999724,294.85840799997095,c,1,0.2640576659468934,None,,,,,1,001,2025-10-01_10h44.56.774, Motor Sequence Learning,,2025.1.1,None,2025-10-01 10h45.04.605132 +0530,
-150,z,127,3,31,z,1,0.29648929100949317,None,31,3,127,3,,,,,294.8686902920017,,294.8589977079537,294.8686902920017,295.8565633749822,295.8565633749822,295.8565633749822,295.8565633749822,295.86079570796574,296.85657962498954,296.85657962498954,297.15826924995054,z,1,0.29648929100949317,None,,,,,1,001,2025-10-01_10h44.56.774, Motor Sequence Learning,,2025.1.1,None,2025-10-01 10h45.04.605132 +0530,
-50,x,128,0,32,x,1,0.6235023320186883,None,32,0,128,0,,,,,297.16812920797383,,297.1589729579864,297.16812920797383,298.1568837919622,298.1568837919622,298.1568837919622,298.1568837919622,298.1620523329475,299.15656145795947,299.15656145795947,299.7917420419981,x,1,0.6235023320186883,None,,,,,1,001,2025-10-01_10h44.56.774, Motor Sequence Learning,,2025.1.1,None,2025-10-01 10h45.04.605132 +0530,
150,v,129,1,32,v,1,0.2799795820028521,None,32,1,129,1,,,,,299.8023210829706,,299.7923238329822,299.8023210829706,300.7899671669584,300.7899671669584,300.7899671669584,300.7899671669584,300.7945005829679,301.7899922079523,301.7899922079523,302.0754361249856,v,1,0.2799795820028521,None,,,,,1,001,2025-10-01_10h44.56.774, Motor Sequence Learning,,2025.1.1,None,2025-10-01 10h45.04.605132 +0530,
50,c,130,2,32,c,1,0.34443229099269956,None,32,2,130,2,,,,,302.0851418329985,,302.0760125829838,302.0851418329985,303.0725280419574,303.0725280419574,303.0725280419574,303.0725280419574,303.0765059169498,304.0724595829961,304.0724595829961,304.42504208296305,c,1,0.34443229099269956,None,,,,,1,001,2025-10-01_10h44.56.774, Motor Sequence Learning,,2025.1.1,None,2025-10-01 10h45.04.605132 +0530,
-150,z,131,3,32,z,1,0.2655672079999931,None,32,3,131,3,,,,,304.4351064579678,,304.42559958295897,304.4351064579678,305.4232707499759,305.4232707499759,305.4232707499759,305.4232707499759,305.4274640419753,306.4232599999523,306.4232599999523,306.6917629999807,z,1,0.2655672079999931,None,,,,,1,001,2025-10-01_10h44.56.774, Motor Sequence Learning,,2025.1.1,None,2025-10-01 10h45.04.605132 +0530,
-50,x,132,0,33,x,1,0.5667808320140466,None,33,0,132,0,,,,,306.7015443329583,,306.6923965829774,306.7015443329583,307.6898949999595,307.6898949999595,307.6898949999595,307.6898949999595,307.6941310829716,308.6899641249911,308.6899641249911,309.2684577499749,x,1,0.5667808320140466,None,,,,,1,001,2025-10-01_10h44.56.774, Motor Sequence Learning,,2025.1.1,None,2025-10-01 10h45.04.605132 +0530,
150,v,133,1,33,v,1,0.4854299569851719,None,33,1,133,1,,,,,309.2723939169664,,309.2689038749668,309.2723939169664,310.2614477079478,310.2614477079478,310.2614477079478,310.2614477079478,310.2614477079478,311.26129899994703,311.26129899994703,311.75842254195595,v,1,0.4854299569851719,None,,,,,1,001,2025-10-01_10h44.56.774, Motor Sequence Learning,,2025.1.1,None,2025-10-01 10h45.04.605132 +0530,
50,c,134,2,33,c,1,0.3501257080351934,None,33,2,134,2,,,,,311.7680667079985,,311.7589827919728,311.7680667079985,312.75666237500263,312.75666237500263,312.75666237500263,312.75666237500263,312.7612112920033,313.75651291699614,313.75651291699614,314.11902833299246,c,1,0.3501257080351934,None,,,,,1,001,2025-10-01_10h44.56.774, Motor Sequence Learning,,2025.1.1,None,2025-10-01 10h45.04.605132 +0530,
-150,z,135,3,33,z,1,0.2831051659886725,None,33,3,135,3,,,,,314.1226014169515,,314.1194874579669,314.1226014169515,315.1109090419486,315.1109090419486,315.1109090419486,315.1109090419486,315.1109090419486,316.1115259169601,316.1115259169601,316.4085349169909,z,1,0.2831051659886725,None,,,,,1,001,2025-10-01_10h44.56.774, Motor Sequence Learning,,2025.1.1,None,2025-10-01 10h45.04.605132 +0530,
-50,x,136,0,34,x,1,0.4469180819578469,None,34,0,136,0,,,,,316.4181887919549,,316.4090893329703,316.4181887919549,317.4065543329925,317.4065543329925,317.4065543329925,317.4065543329925,317.411961582955,318.4066313749645,318.4066313749645,318.8581343749538,x,1,0.4469180819578469,None,,,,,1,001,2025-10-01_10h44.56.774, Motor Sequence Learning,,2025.1.1,None,2025-10-01 10h45.04.605132 +0530,
150,v,137,1,34,v,1,0.35009137401357293,None,34,1,137,1,,,,,318.8678602919681,,318.8587528329808,318.8678602919681,319.8565899579553,319.8565899579553,319.8565899579553,319.8565899579553,319.86071737494785,320.8564308749628,320.8564308749628,321.2086419169791,v,1,0.35009137401357293,None,,,,,1,001,2025-10-01_10h44.56.774, Motor Sequence Learning,,2025.1.1,None,2025-10-01 10h45.04.605132 +0530,
50,c,138,2,34,c,1,0.31296608300181106,None,34,2,138,2,,,,,321.2182678329991,,321.20922579197213,321.2182678329991,322.20658370800084,322.20658370800084,322.20658370800084,322.20658370800084,322.2108734169742,323.20657620800193,323.20657620800193,323.52491095795995,c,1,0.31296608300181106,None,,,,,1,001,2025-10-01_10h44.56.774, Motor Sequence Learning,,2025.1.1,None,2025-10-01 10h45.04.605132 +0530,
-150,z,139,3,34,z,1,0.30521720700198784,None,34,3,139,3,,,,,323.5344921670039,,323.5255594999762,323.5344921670039,324.5233304579742,324.5233304579742,324.5233304579742,324.5233304579742,324.527561166964,325.5232133329846,325.5232133329846,325.84191404195735,z,1,0.30521720700198784,None,,,,,1,001,2025-10-01_10h44.56.774, Motor Sequence Learning,,2025.1.1,None,2025-10-01 10h45.04.605132 +0530,
-50,x,140,0,35,x,1,0.4721600409829989,None,35,0,140,0,,,,,325.85173145798035,,325.8424745419761,325.85173145798035,326.839911499992,326.839911499992,326.839911499992,326.839911499992,326.8445480829687,327.8400210419786,327.8400210419786,328.3232013749657,x,1,0.4721600409829989,None,,,,,1,001,2025-10-01_10h44.56.774, Motor Sequence Learning,,2025.1.1,None,2025-10-01 10h45.04.605132 +0530,
150,v,141,1,35,v,1,0.41919920704094693,None,35,1,141,1,,,,,328.3264797499869,,328.3236460419721,328.3264797499869,329.31125779199647,329.31125779199647,329.31125779199647,329.31125779199647,329.32312912499765,330.3120330829988,330.3120330829988,330.7418571669841,v,1,0.41919920704094693,None,,,,,1,001,2025-10-01_10h44.56.774, Motor Sequence Learning,,2025.1.1,None,2025-10-01 10h45.04.605132 +0530,
50,c,142,2,35,c,1,0.29096104099880904,None,35,2,142,2,,,,,330.75167154194787,,330.74251124996226,330.75167154194787,331.73987437499454,331.73987437499454,331.73987437499454,331.73987437499454,331.7443889169954,332.7399562499486,332.7399562499486,333.04190312494757,c,1,0.29096104099880904,None,,,,,1,001,2025-10-01_10h44.56.774, Motor Sequence Learning,,2025.1.1,None,2025-10-01 10h45.04.605132 +0530,
-150,z,143,3,35,z,1,0.3430643319734372,None,35,3,143,3,,,,,333.0517677500029,,333.0425672919955,333.0517677500029,334.03991316695465,334.03991316695465,334.03991316695465,334.03991316695465,334.0442246249877,335.04005537496414,335.04005537496414,335.3917322079651,z,1,0.3430643319734372,None,,,,,1,001,2025-10-01_10h44.56.774, Motor Sequence Learning,,2025.1.1,None,2025-10-01 10h45.04.605132 +0530,
-50,x,144,0,36,x,1,0.25232541596051306,None,36,0,144,0,,,,,335.4013011249481,,335.3924016249948,335.4013011249481,336.38981012499426,336.38981012499426,336.38981012499426,336.38981012499426,336.39411129197106,337.38977624999825,337.38977624999825,337.64636016695295,x,1,0.25232541596051306,None,,,,,1,001,2025-10-01_10h44.56.774, Motor Sequence Learning,,2025.1.1,None,2025-10-01 10h45.04.605132 +0530,
150,v,145,1,36,v,1,0.27778087405022234,None,36,1,145,1,,,,,337.65558995795436,,337.6468997919583,337.65558995795436,338.6446467079804,338.6446467079804,338.6446467079804,338.6446467079804,338.6446467079804,339.6452778749517,339.6452778749517,339.9248032079777,v,1,0.27778087405022234,None,,,,,1,001,2025-10-01_10h44.56.774, Motor Sequence Learning,,2025.1.1,None,2025-10-01 10h45.04.605132 +0530,
50,c,146,2,36,c,1,0.43988495698431507,None,36,2,146,2,,,,,339.93517337494995,,339.92542216699803,339.93517337494995,340.92326308297925,340.92326308297925,340.92326308297925,340.92326308297925,340.92785395798273,341.92312695796136,341.92312695796136,342.37544391700067,c,1,0.43988495698431507,None,,,,,1,001,2025-10-01_10h44.56.774, Motor Sequence Learning,,2025.1.1,None,2025-10-01 10h45.04.605132 +0530,
-150,z,147,3,36,z,1,0.33957187400665134,None,36,3,147,3,,,,,342.3845828749472,,342.37597983295564,342.3845828749472,343.3731647079694,343.3731647079694,343.3731647079694,343.3731647079694,343.3775824579643,344.37336666695774,344.37336666695774,344.72480295796413,z,1,0.33957187400665134,None,,,,,1,001,2025-10-01_10h44.56.774, Motor Sequence Learning,,2025.1.1,None,2025-10-01 10h45.04.605132 +0530,
-50,x,148,0,37,x,1,0.5867173330043443,None,37,0,148,0,,,,,344.73384458298096,,344.72540904197376,344.73384458298096,345.72322666697437,345.72322666697437,345.72322666697437,345.72322666697437,345.7272945419536,346.7231653749477,346.7231653749477,347.3126148749725,x,1,0.5867173330043443,None,,,,,1,001,2025-10-01_10h44.56.774, Motor Sequence Learning,,2025.1.1,None,2025-10-01 10h45.04.605132 +0530,
150,v,149,1,37,v,1,0.3533249580068514,None,37,1,149,1,,,,,347.32236233295407,,347.3131665829569,347.32236233295407,348.31126145797316,348.31126145797316,348.31126145797316,348.31126145797316,348.31126145797316,349.3125790829654,349.3125790829654,349.67513787496137,v,1,0.3533249580068514,None,,,,,1,001,2025-10-01_10h44.56.774, Motor Sequence Learning,,2025.1.1,None,2025-10-01 10h45.04.605132 +0530,
50,c,150,2,37,c,1,0.2886027069762349,None,37,2,150,2,,,,,349.68427933298517,,349.6756923329667,349.68427933298517,350.67313370795455,350.67313370795455,350.67313370795455,350.67313370795455,350.6776804999681,351.67320720799034,351.67320720799034,351.97553987498395,c,1,0.2886027069762349,None,,,,,1,001,2025-10-01_10h44.56.774, Motor Sequence Learning,,2025.1.1,None,2025-10-01 10h45.04.605132 +0530,
-150,z,151,3,37,z,1,0.3206687499769032,None,37,3,151,3,,,,,351.9843914579833,,351.9761033329996,351.9843914579833,352.97324479196686,352.97324479196686,352.97324479196686,352.97324479196686,352.9777133750031,353.9731265419978,353.9731265419978,354.29548404196976,z,1,0.3206687499769032,None,,,,,1,001,2025-10-01_10h44.56.774, Motor Sequence Learning,,2025.1.1,None,2025-10-01 10h45.04.605132 +0530,
-50,x,152,0,38,x,1,0.520649540994782,None,38,0,152,0,,,,,354.3057392499759,,354.29606012499426,354.3057392499759,355.29546062496956,355.29546062496956,355.29546062496956,355.29546062496956,355.29546062496956,356.29511770798126,356.29511770798126,356.82499079196714,x,1,0.520649540994782,None,,,,,1,001,2025-10-01_10h44.56.774, Motor Sequence Learning,,2025.1.1,None,2025-10-01 10h45.04.605132 +0530,
150,v,153,1,38,v,1,0.3174319990212098,None,38,1,153,1,,,,,356.834478957986,,356.8255399169866,356.834478957986,357.8231664999621,357.8231664999621,357.8231664999621,357.8231664999621,357.82781487499597,358.8231772079598,358.8231772079598,359.146542167,v,1,0.3174319990212098,None,,,,,1,001,2025-10-01_10h44.56.774, Motor Sequence Learning,,2025.1.1,None,2025-10-01 10h45.04.605132 +0530,
50,c,154,2,38,c,1,0.28323316597379744,None,38,2,154,2,,,,,359.1559135419666,,359.14711237495067,359.1559135419666,360.14481816696934,360.14481816696934,360.14481816696934,360.14481816696934,360.14481816696934,361.1453833329724,361.1453833329724,361.4417804579716,c,1,0.28323316597379744,None,,,,,1,001,2025-10-01_10h44.56.774, Motor Sequence Learning,,2025.1.1,None,2025-10-01 10h45.04.605132 +0530,
-150,z,155,3,38,z,1,0.28368033200968057,None,38,3,155,3,,,,,361.4513963329955,,361.44237466697814,361.4513963329955,362.4397822499741,362.4397822499741,362.4397822499741,362.4397822499741,362.44428574998165,363.43992508295923,363.43992508295923,363.7293439999921,z,1,0.28368033200968057,None,,,,,1,001,2025-10-01_10h44.56.774, Motor Sequence Learning,,2025.1.1,None,2025-10-01 10h45.04.605132 +0530,
-50,x,156,0,39,x,1,0.43313612503698096,None,39,0,156,0,,,,,363.73906762496335,,363.72987933299737,363.73906762496335,364.72844249999616,364.72844249999616,364.72844249999616,364.72844249999616,364.72844249999616,365.72928558295825,365.72928558295825,366.17517337499885,x,1,0.43313612503698096,None,,,,,1,001,2025-10-01_10h44.56.774, Motor Sequence Learning,,2025.1.1,None,2025-10-01 10h45.04.605132 +0530,
150,v,157,1,39,v,1,0.33519366598920897,None,39,1,157,1,,,,,366.18520120799076,,366.17590549995657,366.18520120799076,367.173161291983,367.173161291983,367.173161291983,367.173161291983,367.17766554199625,368.17323037498863,368.17323037498863,368.5131884999573,v,1,0.33519366598920897,None,,,,,1,001,2025-10-01_10h44.56.774, Motor Sequence Learning,,2025.1.1,None,2025-10-01 10h45.04.605132 +0530,
50,c,158,2,39,c,1,0.2919884159928188,None,39,2,158,2,,,,,368.5229920419515,,368.5137587499921,368.5229920419515,369.51145016698865,369.51145016698865,369.51145016698865,369.51145016698865,369.51145016698865,370.51243837497896,370.51243837497896,370.80845895799575,c,1,0.2919884159928188,None,,,,,1,001,2025-10-01_10h44.56.774, Motor Sequence Learning,,2025.1.1,None,2025-10-01 10h45.04.605132 +0530,
-150,z,159,3,39,z,1,0.36486829101340845,None,39,3,159,3,,,,,370.81827554199845,,370.8090202919557,370.81827554199845,371.80643641698407,371.80643641698407,371.80643641698407,371.80643641698407,371.81095183297293,372.8065434169839,372.8065434169839,373.1752173329587,z,1,0.36486829101340845,None,,,,,1,001,2025-10-01_10h44.56.774, Motor Sequence Learning,,2025.1.1,None,2025-10-01 10h45.04.605132 +0530,
-50,x,160,0,40,x,1,0.4741802079952322,None,40,0,160,0,,,,,373.1853529999498,,373.17579079198185,373.1853529999498,374.17320499999914,374.17320499999914,374.17320499999914,374.17320499999914,374.1777681669919,375.1731752079795,375.1731752079795,375.6583499169792,x,1,0.4741802079952322,None,,,,,1,001,2025-10-01_10h44.56.774, Motor Sequence Learning,,2025.1.1,None,2025-10-01 10h45.04.605132 +0530,
150,v,161,1,40,v,1,0.4518649160163477,None,40,1,161,1,,,,,375.6679504579515,,375.6589015419595,375.6679504579515,376.6564794169972,376.6564794169972,376.6564794169972,376.6564794169972,376.6608362919651,377.65639087499585,377.65639087499585,378.1135114579811,v,1,0.4518649160163477,None,,,,,1,001,2025-10-01_10h44.56.774, Motor Sequence Learning,,2025.1.1,None,2025-10-01 10h45.04.605132 +0530,
50,c,162,2,40,c,1,0.32440795697038993,None,40,2,162,2,,,,,378.12288591696415,,378.1140535000013,378.12288591696415,379.1110504169483,379.1110504169483,379.1110504169483,379.1110504169483,379.1110504169483,380.1118952919496,380.1118952919496,380.44179499999154,c,1,0.32440795697038993,None,,,,,1,001,2025-10-01_10h44.56.774, Motor Sequence Learning,,2025.1.1,None,2025-10-01 10h45.04.605132 +0530,
-150,z,163,3,40,z,1,0.3022753749974072,None,40,3,163,3,,,,,380.45159687497653,,380.44234687497374,380.45159687497653,381.4397486669477,381.4397486669477,381.4397486669477,381.4397486669477,381.44408187497174,382.4398736250005,382.4398736250005,382.74661941698287,z,1,0.3022753749974072,None,,,,,1,001,2025-10-01_10h44.56.774, Motor Sequence Learning,,2025.1.1,None,2025-10-01 10h45.04.605132 +0530,
-50,x,164,0,41,x,1,0.4319800410303287,None,41,0,164,0,,,,,382.7556591669563,,382.7472163749626,382.7556591669563,383.7443890419672,383.7443890419672,383.7443890419672,383.7443890419672,383.7443890419672,384.74609824997606,384.74609824997606,385.1915719169774,x,1,0.4319800410303287,None,,,,,1,001,2025-10-01_10h44.56.774, Motor Sequence Learning,,2025.1.1,None,2025-10-01 10h45.04.605132 +0530,
150,v,165,1,41,v,1,0.348334041016642,None,41,1,165,1,,,,,385.20045079197735,,385.1921369579504,385.20045079197735,386.18971612496534,386.18971612496534,386.18971612496534,386.18971612496534,386.19398808298865,387.1897262079874,387.1897262079874,387.5421019169735,v,1,0.348334041016642,None,,,,,1,001,2025-10-01_10h44.56.774, Motor Sequence Learning,,2025.1.1,None,2025-10-01 10h45.04.605132 +0530,
50,c,166,2,41,c,1,0.33513812499586493,None,41,2,166,2,,,,,387.5511554579716,,387.5427000419586,387.5511554579716,388.5397399579524,388.5397399579524,388.5397399579524,388.5397399579524,388.5441762499977,389.53982958296547,389.53982958296547,389.8794653749792,c,1,0.33513812499586493,None,,,,,1,001,2025-10-01_10h44.56.774, Motor Sequence Learning,,2025.1.1,None,2025-10-01 10h45.04.605132 +0530,
-150,z,167,3,41,z,1,0.3333747909637168,None,41,3,167,3,,,,,389.88876195799094,,389.8800436669844,389.88876195799094,390.877786832978,390.877786832978,390.877786832978,390.877786832978,390.877786832978,391.878593582951,391.878593582951,392.2248760419898,z,1,0.3333747909637168,None,,,,,1,001,2025-10-01_10h44.56.774, Motor Sequence Learning,,2025.1.1,None,2025-10-01 10h45.04.605132 +0530,
-50,x,168,0,42,x,1,0.32787241600453854,None,42,0,168,0,,,,,392.23375633294927,,392.2254674169817,392.23375633294927,393.2230035829707,393.2230035829707,393.2230035829707,393.2230035829707,393.2270839579869,394.2230332499603,394.2230332499603,394.55816708295606,x,1,0.32787241600453854,None,,,,,1,001,2025-10-01_10h44.56.774, Motor Sequence Learning,,2025.1.1,None,2025-10-01 10h45.04.605132 +0530,
150,v,169,1,42,v,1,0.5743929159943946,None,42,1,169,1,,,,,394.5668666669517,,394.55876966699725,394.5668666669517,395.5563678329927,395.5563678329927,395.5563678329927,395.5563678329927,395.56041224999353,396.55639195797266,396.55639195797266,397.14169670798583,v,1,0.5743929159943946,None,,,,,1,001,2025-10-01_10h44.56.774, Motor Sequence Learning,,2025.1.1,None,2025-10-01 10h45.04.605132 +0530,
50,c,170,2,42,c,1,0.2929827499901876,None,42,2,170,2,,,,,397.15056004194776,,397.14228904194897,397.15056004194776,398.1397860829602,398.1397860829602,398.1397860829602,398.1397860829602,398.14452583296224,399.13973570795497,399.13973570795497,399.4417473329813,c,1,0.2929827499901876,None,,,,,1,001,2025-10-01_10h44.56.774, Motor Sequence Learning,,2025.1.1,None,2025-10-01 10h45.04.605132 +0530,
-150,z,171,3,42,z,1,0.27084829105297104,None,42,3,171,3,,,,,399.45072841696674,,399.4423182499595,399.45072841696674,400.43975295795826,400.43975295795826,400.43975295795826,400.43975295795826,400.44432858296204,401.439833249955,401.439833249955,401.71228641696507,z,1,0.27084829105297104,None,,,,,1,001,2025-10-01_10h44.56.774, Motor Sequence Learning,,2025.1.1,None,2025-10-01 10h45.04.605132 +0530,
-50,x,172,0,43,x,1,0.3153518739854917,None,43,0,172,0,,,,,401.72224816697417,,401.71283629199024,401.72224816697417,402.71205704199383,402.71205704199383,402.71205704199383,402.71205704199383,402.71205704199383,403.7119421669631,403.7119421669631,404.0287624579505,x,1,0.3153518739854917,None,,,,,1,001,2025-10-01_10h44.56.774, Motor Sequence Learning,,2025.1.1,None,2025-10-01 10h45.04.605132 +0530,
150,v,173,1,43,v,1,0.31578387500485405,None,43,1,173,1,,,,,404.0389473749674,,404.0293062919518,404.0389473749674,405.0279768749606,405.0279768749606,405.0279768749606,405.0279768749606,405.0279768749606,406.02781958295964,406.02781958295964,406.346059124975,v,1,0.31578387500485405,None,,,,,1,001,2025-10-01_10h44.56.774, Motor Sequence Learning,,2025.1.1,None,2025-10-01 10h45.04.605132 +0530,
50,c,174,2,43,c,1,0.2703913329751231,None,43,2,174,2,,,,,406.3555058329948,,406.34664354199776,406.3555058329948,407.34462249994976,407.34462249994976,407.34462249994976,407.34462249994976,407.34462249994976,408.34519512497354,408.34519512497354,408.62482695799554,c,1,0.2703913329751231,None,,,,,1,001,2025-10-01_10h44.56.774, Motor Sequence Learning,,2025.1.1,None,2025-10-01 10h45.04.605132 +0530,
-150,z,175,3,43,z,1,0.2855084579787217,None,43,3,175,3,,,,,408.63367724994896,,408.62540516699664,408.63367724994896,409.62294499995187,409.62294499995187,409.62294499995187,409.62294499995187,409.62706299999263,410.6230467080022,410.6230467080022,410.9129977079574,z,1,0.2855084579787217,None,,,,,1,001,2025-10-01_10h44.56.774, Motor Sequence Learning,,2025.1.1,None,2025-10-01 10h45.04.605132 +0530,
-50,x,176,0,44,x,1,0.41246158303692937,None,44,0,176,0,,,,,410.92199654196156,,410.9135763749946,410.92199654196156,411.91100937494775,411.91100937494775,411.91100937494775,411.91100937494775,411.91100937494775,412.911997624964,412.911997624964,413.32873212499544,x,1,0.41246158303692937,None,,,,,1,001,2025-10-01_10h44.56.774, Motor Sequence Learning,,2025.1.1,None,2025-10-01 10h45.04.605132 +0530,
150,v,177,1,44,v,1,0.40975108300335705,None,44,1,177,1,,,,,413.3394608749659,,413.3293872079812,413.3394608749659,414.32736616698094,414.32736616698094,414.32736616698094,414.32736616698094,414.32736616698094,415.3277740419726,415.3277740419726,415.7418829999515,v,1,0.40975108300335705,None,,,,,1,001,2025-10-01_10h44.56.774, Motor Sequence Learning,,2025.1.1,None,2025-10-01 10h45.04.605132 +0530,
50,c,178,2,44,c,1,0.27072004100773484,None,44,2,178,2,,,,,415.7509553330019,,415.7424595829798,415.7509553330019,416.7400080829975,416.7400080829975,416.7400080829975,416.7400080829975,416.7446497499477,417.7396559579647,417.7396559579647,418.01258158299606,c,1,0.27072004100773484,None,,,,,1,001,2025-10-01_10h44.56.774, Motor Sequence Learning,,2025.1.1,None,2025-10-01 10h45.04.605132 +0530,
-150,z,179,3,44,z,1,0.31181224901229143,None,44,3,179,3,,,,,418.02219820796745,,418.01311845798045,418.02219820796745,419.01092779199826,419.01092779199826,419.01092779199826,419.01092779199826,419.01092779199826,420.0113784580026,420.0113784580026,420.33428824995644,z,1,0.31181224901229143,None,,,,,1,001,2025-10-01_10h44.56.774, Motor Sequence Learning,,2025.1.1,None,2025-10-01 10h45.04.605132 +0530,
-50,x,180,0,45,x,1,0.32433770794887096,None,45,0,180,0,,,,,420.33892487495905,,420.33472508296836,420.33892487495905,421.32799599994905,421.32799599994905,421.32799599994905,421.32799599994905,421.32799599994905,422.3280343329534,422.3280343329534,422.6580435420037,x,1,0.32433770794887096,None,,,,,1,001,2025-10-01_10h44.56.774, Motor Sequence Learning,,2025.1.1,None,2025-10-01 10h45.04.605132 +0530,
150,v,181,1,45,v,1,0.39792262396076694,None,45,1,181,1,,,,,422.66682975000003,,422.6586204999476,422.66682975000003,423.65649974998087,423.65649974998087,423.65649974998087,423.65649974998087,423.6612965419772,424.656378124957,424.656378124957,425.0581883749692,v,1,0.39792262396076694,None,,,,,1,001,2025-10-01_10h44.56.774, Motor Sequence Learning,,2025.1.1,None,2025-10-01 10h45.04.605132 +0530,
50,c,182,2,45,c,1,0.3868393739685416,None,45,2,182,2,,,,,425.0668369999621,,425.0587246249779,425.0668369999621,426.05635295796674,426.05635295796674,426.05635295796674,426.05635295796674,426.06107083294773,427.05640308297006,427.05640308297006,427.4463837919757,c,1,0.3868393739685416,None,,,,,1,001,2025-10-01_10h44.56.774, Motor Sequence Learning,,2025.1.1,None,2025-10-01 10h45.04.605132 +0530,
-150,z,183,3,45,z,1,0.2850554999895394,None,45,3,183,3,,,,,427.45575562497834,,427.4469216669677,427.45575562497834,428.4443199169473,428.4443199169473,428.4443199169473,428.4443199169473,428.4443199169473,429.44502991699846,429.44502991699846,429.74164520797785,z,1,0.2850554999895394,None,,,,,1,001,2025-10-01_10h44.56.774, Motor Sequence Learning,,2025.1.1,None,2025-10-01 10h45.04.605132 +0530,
-50,x,184,0,46,x,1,0.2933504160027951,None,46,0,184,0,,,,,429.75018154195277,,429.74219924997305,429.75018154195277,430.7397102499963,430.7397102499963,430.7397102499963,430.7397102499963,430.74439208296826,431.7397516669589,431.7397516669589,432.0416649999679,x,1,0.2933504160027951,None,,,,,1,001,2025-10-01_10h44.56.774, Motor Sequence Learning,,2025.1.1,None,2025-10-01 10h45.04.605132 +0530,
150,v,185,1,46,v,1,0.2813232909538783,None,46,1,185,1,,,,,432.0510516669601,,432.0422181249596,432.0510516669601,433.03962462500203,433.03962462500203,433.03962462500203,433.03962462500203,433.0440425419947,434.0396978749777,434.0396978749777,434.32470670796465,v,1,0.2813232909538783,None,,,,,1,001,2025-10-01_10h44.56.774, Motor Sequence Learning,,2025.1.1,None,2025-10-01 10h45.04.605132 +0530,
50,c,186,2,46,c,1,0.39209270803257823,None,46,2,186,2,,,,,434.3338141249842,,434.3253469579504,434.3338141249842,435.3230206249864,435.3230206249864,435.3230206249864,435.3230206249864,435.32712512498256,436.3229202499497,436.3229202499497,436.7246526669478,c,1,0.39209270803257823,None,,,,,1,001,2025-10-01_10h44.56.774, Motor Sequence Learning,,2025.1.1,None,2025-10-01 10h45.04.605132 +0530,
-150,z,187,3,46,z,1,0.28695658198557794,None,46,3,187,3,,,,,436.7340299579664,,436.7252620829968,436.7340299579664,437.7229976669769,437.7229976669769,437.7229976669769,437.7229976669769,437.72708987497026,438.72297729196725,438.72297729196725,439.012501041987,z,1,0.28695658198557794,None,,,,,1,001,2025-10-01_10h44.56.774, Motor Sequence Learning,,2025.1.1,None,2025-10-01 10h45.04.605132 +0530,
-50,x,188,0,47,x,1,0.5111942490329966,None,47,0,188,0,,,,,439.0221419169684,,439.0130478749634,439.0221419169684,440.0109893329791,440.0109893329791,440.0109893329791,440.0109893329791,440.0109893329791,441.01169416698394,441.01169416698394,441.53409933298826,x,1,0.5111942490329966,None,,,,,1,001,2025-10-01_10h44.56.774, Motor Sequence Learning,,2025.1.1,None,2025-10-01 10h45.04.605132 +0530,
150,v,189,1,47,v,1,0.2904582910123281,None,47,1,189,1,,,,,441.53876420797314,,441.5345564169693,441.53876420797314,442.52776108297985,442.52776108297985,442.52776108297985,442.52776108297985,442.52776108297985,443.52852716698544,443.52852716698544,443.825335832953,v,1,0.2904582910123281,None,,,,,1,001,2025-10-01_10h44.56.774, Motor Sequence Learning,,2025.1.1,None,2025-10-01 10h45.04.605132 +0530,
50,c,190,2,47,c,1,0.2988732079975307,None,47,2,190,2,,,,,443.83450587495463,,443.8259689169936,443.83450587495463,444.82299562497064,444.82299562497064,444.82299562497064,444.82299562497064,444.82707866700366,445.8229377079988,445.8229377079988,446.1245786669897,c,1,0.2988732079975307,None,,,,,1,001,2025-10-01_10h44.56.774, Motor Sequence Learning,,2025.1.1,None,2025-10-01 10h45.04.605132 +0530,
-150,z,191,3,47,z,1,0.26567895797779784,None,47,3,191,3,,,,,446.13367549999384,,446.12523645797046,446.13367549999384,447.122945082956,447.122945082956,447.122945082956,447.122945082956,447.12704762496287,448.12301683297846,448.12301683297846,448.3912368749734,z,1,0.26567895797779784,None,,,,,1,001,2025-10-01_10h44.56.774, Motor Sequence Learning,,2025.1.1,None,2025-10-01 10h45.04.605132 +0530,
-50,x,192,0,48,x,1,0.4670862070051953,None,48,0,192,0,,,,,448.40016174997436,,448.3918559579761,448.40016174997436,449.38964491698425,449.38964491698425,449.38964491698425,449.38964491698425,449.39383587497286,450.38968362496234,450.38968362496234,450.86234158294974,x,1,0.4670862070051953,None,,,,,1,001,2025-10-01_10h44.56.774, Motor Sequence Learning,,2025.1.1,None,2025-10-01 10h45.04.605132 +0530,
150,v,193,1,48,v,1,0.49735654098913074,None,48,1,193,1,,,,,450.8721304999781,,450.862871291989,450.8721304999781,451.861354957975,451.861354957975,451.861354957975,451.861354957975,451.861354957975,452.86118758295197,452.86118758295197,453.36201916699065,v,1,0.49735654098913074,None,,,,,1,001,2025-10-01_10h44.56.774, Motor Sequence Learning,,2025.1.1,None,2025-10-01 10h45.04.605132 +0530,
50,c,194,2,48,c,1,0.2661784570082091,None,48,2,194,2,,,,,453.37228499999037,,453.36254908295814,453.37228499999037,454.3610589999589,454.3610589999589,454.3610589999589,454.3610589999589,454.3610589999589,455.36137445794884,455.36137445794884,455.6415950829978,c,1,0.2661784570082091,None,,,,,1,001,2025-10-01_10h44.56.774, Motor Sequence Learning,,2025.1.1,None,2025-10-01 10h45.04.605132 +0530,
-150,z,195,3,48,z,1,0.29186274902895093,None,48,3,195,3,,,,,455.6504942079773,,455.6421348750009,455.6504942079773,456.6395949579892,456.6395949579892,456.6395949579892,456.6395949579892,456.6442478749668,457.6396859579836,457.6396859579836,457.941539249965,z,1,0.29186274902895093,None,,,,,1,001,2025-10-01_10h44.56.774, Motor Sequence Learning,,2025.1.1,None,2025-10-01 10h45.04.605132 +0530,
-50,x,196,0,49,x,1,0.31205804098863155,None,49,0,196,0,,,,,457.95089679199737,,457.94212991697714,457.95089679199737,458.9395341249765,458.9395341249765,458.9395341249765,458.9395341249765,458.9439898749697,459.9396189999534,459.9396189999534,460.2580799169955,x,1,0.31205804098863155,None,,,,,1,001,2025-10-01_10h44.56.774, Motor Sequence Learning,,2025.1.1,None,2025-10-01 10h45.04.605132 +0530,
150,v,197,1,49,v,1,0.28507508197799325,None,49,1,197,1,,,,,460.26695962494705,,460.25862879195483,460.26695962494705,461.2561969999806,461.2561969999806,461.2561969999806,461.2561969999806,461.2603357079788,462.2562844999484,462.2562844999484,462.5462962919846,v,1,0.28507508197799325,None,,,,,1,001,2025-10-01_10h44.56.774, Motor Sequence Learning,,2025.1.1,None,2025-10-01 10h45.04.605132 +0530,
50,c,198,2,49,c,1,0.3352235819911584,None,49,2,198,2,,,,,462.55551091698,,462.54685066698585,462.55551091698,463.5445144579862,463.5445144579862,463.5445144579862,463.5445144579862,463.5445144579862,464.5449545419542,464.5449545419542,464.8915758749936,c,1,0.3352235819911584,None,,,,,1,001,2025-10-01_10h44.56.774, Motor Sequence Learning,,2025.1.1,None,2025-10-01 10h45.04.605132 +0530,
-150,z,199,3,49,z,1,0.28669066599104553,None,49,3,199,3,,,,,464.90064495796105,,464.89213570795255,464.90064495796105,465.8896448329906,465.8896448329906,465.8896448329906,465.8896448329906,465.89396641700296,466.88959733297816,466.88959733297816,467.1786253329483,z,1,0.28669066599104553,None,,,,,1,001,2025-10-01_10h44.56.774, Motor Sequence Learning,,2025.1.1,None,2025-10-01 10h45.04.605132 +0530,
50,c,0,0,0,v,0,0.45562775002326816,None,,,,,0,0,0,2,467.1942231669673,,467.1887522919569,467.1942231669673,468.1777309579775,468.1777309579775,468.1777309579775,468.1777309579775,468.1895090419566,469.1782592079835,469.1782592079835,469.6413403749466,,,,,v,0,0.45562775002326816,None,1,001,2025-10-01_10h44.56.774, Motor Sequence Learning,,2025.1.1,None,2025-10-01 10h45.04.605132 +0530,
150,v,1,1,0,v,1,0.32668812497286126,None,,,,,0,1,1,1,469.64771016698796,,469.6418816669611,469.64771016698796,470.63953241700074,470.63953241700074,470.63953241700074,470.63953241700074,470.64421962498454,471.6396145419567,471.6396145419567,471.9747958749649,,,,,v,1,0.32668812497286126,None,1,001,2025-10-01_10h44.56.774, Motor Sequence Learning,,2025.1.1,None,2025-10-01 10h45.04.605132 +0530,
150,v,2,2,1,v,1,0.5762092910008505,None,,,,,1,2,2,1,471.9831321669626,,471.9754009579774,471.9831321669626,472.972880916961,472.972880916961,472.972880916961,472.972880916961,472.9778451669845,473.97295862500323,473.97295862500323,474.5582425419707,,,,,v,1,0.5762092910008505,None,1,001,2025-10-01_10h44.56.774, Motor Sequence Learning,,2025.1.1,None,2025-10-01 10h45.04.605132 +0530,
150,v,3,3,2,v,1,0.4450465409900062,None,,,,,2,3,3,1,474.5688938749954,,474.5588719579973,474.5688938749954,475.55618108296767,475.55618108296767,475.55618108296767,475.55618108296767,475.5604078329634,476.55612512497464,476.55612512497464,477.008507624967,,,,,v,1,0.4450465409900062,None,1,001,2025-10-01_10h44.56.774, Motor Sequence Learning,,2025.1.1,None,2025-10-01 10h45.04.605132 +0530,
50,c,4,4,1,c,1,0.4357699569663964,None,,,,,1,4,4,2,477.01844770798925,,477.009150207974,477.01844770798925,478.0061904999893,478.0061904999893,478.0061904999893,478.0061904999893,478.01112366694724,479.00628562498605,479.00628562498605,479.4460970420041,,,,,c,1,0.4357699569663964,None,1,001,2025-10-01_10h44.56.774, Motor Sequence Learning,,2025.1.1,None,2025-10-01 10h45.04.605132 +0530,
150,v,5,5,3,v,1,0.4269245820469223,None,,,,,3,5,5,1,479.4559124579537,,479.4466786249541,479.4559124579537,480.4448176669539,480.4448176669539,480.4448176669539,480.4448176669539,480.4448176669539,481.4451432499918,481.4451432499918,481.8750759999966,,,,,v,1,0.4269245820469223,None,1,001,2025-10-01_10h44.56.774, Motor Sequence Learning,,2025.1.1,None,2025-10-01 10h45.04.605132 +0530,
-150,z,6,6,0,z,1,0.4340809569694102,None,,,,,0,6,6,3,481.88476137496764,,481.8756629579584,481.88476137496764,482.87287479196675,482.87287479196675,482.87287479196675,482.87287479196675,482.87736866698833,483.87280341697624,483.87280341697624,484.3132993329782,,,,,z,1,0.4340809569694102,None,1,001,2025-10-01_10h44.56.774, Motor Sequence Learning,,2025.1.1,None,2025-10-01 10h45.04.605132 +0530,
-50,x,7,7,0,x,1,0.40829716599546373,None,,,,,0,7,7,0,484.3223984579672,,484.31385662499815,484.3223984579672,485.3107759580016,485.3107759580016,485.3107759580016,485.3107759580016,485.3107759580016,486.31166120799026,486.31166120799026,486.72465595795074,,,,,x,1,0.40829716599546373,None,1,001,2025-10-01_10h44.56.774, Motor Sequence Learning,,2025.1.1,None,2025-10-01 10h45.04.605132 +0530,
50,c,8,8,2,c,1,0.35277545801363885,None,,,,,2,8,8,2,486.7339409169508,,486.72523737495067,486.7339409169508,487.7229087500018,487.7229087500018,487.7229087500018,487.7229087500018,487.7272471250035,488.7231085419771,488.7231085419771,489.0786368330009,,,,,c,1,0.35277545801363885,None,1,001,2025-10-01_10h44.56.774, Motor Sequence Learning,,2025.1.1,None,2025-10-01 10h45.04.605132 +0530,
-50,x,9,9,1,x,1,0.29063458199379966,None,,,,,1,9,9,0,489.0896130829933,,489.079099124996,489.0896130829933,490.07763154199347,490.07763154199347,490.07763154199347,490.07763154199347,490.07763154199347,491.07920441695023,491.07920441695023,491.3749064169824,,,,,x,1,0.29063458199379966,None,1,001,2025-10-01_10h44.56.774, Motor Sequence Learning,,2025.1.1,None,2025-10-01 10h45.04.605132 +0530,
50,c,10,10,3,c,1,0.368960874970071,None,,,,,3,10,10,2,491.3833723749849,,491.37547395797446,491.3833723749849,492.37286183296237,492.37286183296237,492.37286183296237,492.37286183296237,492.37734837498283,493.3727755830041,493.3727755830041,493.7469834169606,,,,,c,1,0.368960874970071,None,1,001,2025-10-01_10h44.56.774, Motor Sequence Learning,,2025.1.1,None,2025-10-01 10h45.04.605132 +0530,
-50,x,11,11,2,x,1,0.2832918740459718,None,,,,,2,11,11,0,493.755526791967,,493.7475578329759,493.755526791967,494.74419054196915,494.74419054196915,494.74419054196915,494.74419054196915,494.74419054196915,495.74547545798123,495.74547545798123,496.0416460419656,,,,,x,1,0.2832918740459718,None,1,001,2025-10-01_10h44.56.774, Motor Sequence Learning,,2025.1.1,None,2025-10-01 10h45.04.605132 +0530,
150,v,12,12,4,v,1,0.3632805410306901,None,,,,,4,12,12,1,496.0514704999514,,496.0421769999666,496.0514704999514,497.039568166947,497.039568166947,497.039568166947,497.039568166947,497.04384429199854,498.03947416698793,498.03947416698793,498.4082923749811,,,,,v,1,0.3632805410306901,None,1,001,2025-10-01_10h44.56.774, Motor Sequence Learning,,2025.1.1,None,2025-10-01 10h45.04.605132 +0530,
50,c,13,13,4,c,1,0.44839499896625057,None,,,,,4,13,13,2,498.4180306249764,,498.40886958298506,498.4180306249764,499.4061530419858,499.4061530419858,499.4061530419858,499.4061530419858,499.4107549999608,500.4062613329734,500.4062613329734,500.8578344580019,,,,,c,1,0.44839499896625057,None,1,001,2025-10-01_10h44.56.774, Motor Sequence Learning,,2025.1.1,None,2025-10-01 10h45.04.605132 +0530,
-150,z,14,14,1,z,1,0.38244837400270626,None,,,,,1,14,14,3,500.8669801669894,,500.85850620799465,500.8669801669894,501.85617387498496,501.85617387498496,501.85617387498496,501.85617387498496,501.8607818329474,502.8561475419556,502.8561475419556,503.2414846669999,,,,,z,1,0.38244837400270626,None,1,001,2025-10-01_10h44.56.774, Motor Sequence Learning,,2025.1.1,None,2025-10-01 10h45.04.605132 +0530,
50,c,15,15,5,c,1,0.46591595804784447,None,,,,,5,15,15,2,503.2511006249697,,503.24206541699823,503.2511006249697,504.23946595797315,504.23946595797315,504.23946595797315,504.23946595797315,504.2442597079789,505.239567166951,505.239567166951,505.7082808749983,,,,,c,1,0.46591595804784447,None,1,001,2025-10-01_10h44.56.774, Motor Sequence Learning,,2025.1.1,None,2025-10-01 10h45.04.605132 +0530,
-50,x,16,16,3,x,1,0.27933999901870266,None,,,,,3,16,16,0,505.7182464170037,,505.7090119170025,505.7182464170037,506.7063424169901,506.7063424169901,506.7063424169901,506.7063424169901,506.71179162495537,507.70625791698694,507.70625791698694,507.99152183299884,,,,,x,1,0.27933999901870266,None,1,001,2025-10-01_10h44.56.774, Motor Sequence Learning,,2025.1.1,None,2025-10-01 10h45.04.605132 +0530,
-50,x,17,17,4,x,1,0.41180008300580084,None,,,,,4,17,17,0,508.00127949996386,,507.99223862495273,508.00127949996386,508.98961387499,508.98961387499,508.98961387499,508.98961387499,508.9946582499542,509.9895636669826,509.9895636669826,510.4082268329803,,,,,x,1,0.41180008300580084,None,1,001,2025-10-01_10h44.56.774, Motor Sequence Learning,,2025.1.1,None,2025-10-01 10h45.04.605132 +0530,
-150,z,18,18,2,z,1,0.6890332080074586,None,,,,,2,18,18,3,510.4179377499968,,510.40884175000247,510.4179377499968,511.4061058749794,511.4061058749794,511.4061058749794,511.4061058749794,511.4111221249914,512.4062287499546,512.4062287499546,513.1083495829953,,,,,z,1,0.6890332080074586,None,1,001,2025-10-01_10h44.56.774, Motor Sequence Learning,,2025.1.1,None,2025-10-01 10h45.04.605132 +0530,
-50,x,19,19,5,x,1,0.39397054101573303,None,,,,,5,19,19,0,513.1181105829892,,513.108905082976,513.1181105829892,514.1062152919476,514.1062152919476,514.1062152919476,514.1062152919476,514.1107770829694,515.1063117079902,515.1063117079902,515.5082887499593,,,,,x,1,0.39397054101573303,None,1,001,2025-10-01_10h44.56.774, Motor Sequence Learning,,2025.1.1,None,2025-10-01 10h45.04.605132 +0530,
-50,x,20,20,6,x,1,0.4368778750067577,None,,,,,6,20,20,0,515.517708542,,515.5088387079886,515.517708542,516.5062994170003,516.5062994170003,516.5062994170003,516.5062994170003,516.5113942919997,517.506140582962,517.506140582962,517.9461510419496,,,,,x,1,0.4368778750067577,None,1,001,2025-10-01_10h44.56.774, Motor Sequence Learning,,2025.1.1,None,2025-10-01 10h45.04.605132 +0530,
-50,x,21,21,7,x,1,0.3944247490144335,None,,,,,7,21,21,0,517.9557227919577,,517.9467319999821,517.9557227919577,518.9449338329723,518.9449338329723,518.9449338329723,518.9449338329723,518.9449338329723,519.9456950000022,519.9456950000022,520.3518518329947,,,,,x,1,0.3944247490144335,None,1,001,2025-10-01_10h44.56.774, Motor Sequence Learning,,2025.1.1,None,2025-10-01 10h45.04.605132 +0530,
50,c,22,22,6,c,1,0.41486424999311566,None,,,,,6,22,22,2,520.3560358749819,,520.3522831669543,520.3560358749819,521.3458912499482,521.3458912499482,521.3458912499482,521.3458912499482,521.3458912499482,522.3462106249644,522.3462106249644,522.7731142919511,,,,,c,1,0.41486424999311566,None,1,001,2025-10-01_10h44.56.774, Motor Sequence Learning,,2025.1.1,None,2025-10-01 10h45.04.605132 +0530,
-50,x,23,23,8,x,1,0.4611406240146607,None,,,,,8,23,23,0,522.7758669169853,,522.7734753330005,522.7758669169853,523.7625152079854,523.7625152079854,523.7625152079854,523.7625152079854,523.7728449169663,524.7619177500019,524.7619177500019,525.2335662919795,,,,,x,1,0.4611406240146607,None,1,001,2025-10-01_10h44.56.774, Motor Sequence Learning,,2025.1.1,None,2025-10-01 10h45.04.605132 +0530,
150,v,24,24,5,v,1,0.4394116660114378,None,,,,,5,24,24,1,525.2386528749485,,525.2339580829721,525.2386528749485,526.2300504999585,526.2300504999585,526.2300504999585,526.2300504999585,526.2300504999585,527.2277512499713,527.2277512499713,527.674775624997,,,,,v,1,0.4394116660114378,None,1,001,2025-10-01_10h44.56.774, Motor Sequence Learning,,2025.1.1,None,2025-10-01 10h45.04.605132 +0530,
-150,z,25,25,3,x,0,0.4221490409690887,None,,,,,3,25,25,3,527.683243916952,,527.675274707959,527.683243916952,528.6727675829898,528.6727675829898,528.6727675829898,528.6727675829898,528.6775138329831,529.6728314999491,529.6728314999491,530.1083223329624,,,,,x,0,0.4221490409690887,None,1,001,2025-10-01_10h44.56.774, Motor Sequence Learning,,2025.1.1,None,2025-10-01 10h45.04.605132 +0530,
50,c,26,26,7,c,1,0.7678161660442129,None,,,,,7,26,26,2,530.1169720419566,,530.1088813749957,530.1169720419566,531.1060273749754,531.1060273749754,531.1060273749754,531.1060273749754,531.1107848329702,532.1061221669661,532.1061221669661,532.8801667919615,,,,,c,1,0.7678161660442129,None,1,001,2025-10-01_10h44.56.774, Motor Sequence Learning,,2025.1.1,None,2025-10-01 10h45.04.605132 +0530,
-150,z,27,27,4,z,1,0.408573916007299,None,,,,,4,27,27,3,532.8931249579764,,532.8807396249613,532.8931249579764,533.8775727499742,533.8775727499742,533.8775727499742,533.8775727499742,533.8893598329742,534.8783256669994,534.8783256669994,535.2912307079532,,,,,z,1,0.408573916007299,None,1,001,2025-10-01_10h44.56.774, Motor Sequence Learning,,2025.1.1,None,2025-10-01 10h45.04.605132 +0530,
150,v,28,28,6,v,1,0.48147320799762383,None,,,,,6,28,28,1,535.3006830829545,,535.2918063749676,535.3006830829545,536.2894507919555,536.2894507919555,536.2894507919555,536.2894507919555,536.2935864169849,537.2893476249883,537.2893476249883,537.7750776250032,,,,,v,1,0.48147320799762383,None,1,001,2025-10-01_10h44.56.774, Motor Sequence Learning,,2025.1.1,None,2025-10-01 10h45.04.605132 +0530,
50,c,29,29,8,c,1,0.5250659569865093,None,,,,,8,29,29,2,537.7851507499581,,537.77579770796,537.7851507499581,538.7728332079714,538.7728332079714,538.7728332079714,538.7728332079714,538.7774736669962,539.7727279169485,539.7727279169485,540.3082401669817,,,,,c,1,0.5250659569865093,None,1,001,2025-10-01_10h44.56.774, Motor Sequence Learning,,2025.1.1,None,2025-10-01 10h45.04.605132 +0530,
150,v,30,30,7,v,1,0.46368166600586846,None,,,,,7,30,30,1,540.3180736249778,,540.3088601249619,540.3180736249778,541.3062032919843,541.3062032919843,541.3062032919843,541.3062032919843,541.311103791988,542.3060668329708,542.3060668329708,542.7748711250024,,,,,v,1,0.46368166600586846,None,1,001,2025-10-01_10h44.56.774, Motor Sequence Learning,,2025.1.1,None,2025-10-01 10h45.04.605132 +0530,
150,v,31,31,8,v,1,0.39292699901852757,None,,,,,8,31,31,1,542.7847144579864,,542.7754598750034,542.7847144579864,543.7726971249795,543.7726971249795,543.7726971249795,543.7726971249795,543.7773685829598,544.7727836669656,544.7727836669656,545.1748498329544,,,,,v,1,0.39292699901852757,None,1,001,2025-10-01_10h44.56.774, Motor Sequence Learning,,2025.1.1,None,2025-10-01 10h45.04.605132 +0530,
-150,z,32,32,5,z,1,0.3969168739859015,None,,,,,5,32,32,3,545.1850287499838,,545.1756547499681,545.1850287499838,546.1726971669705,546.1726971669705,546.1726971669705,546.1726971669705,546.1773517919937,547.1727862499538,547.1727862499538,547.5749294169946,,,,,z,1,0.3969168739859015,None,1,001,2025-10-01_10h44.56.774, Motor Sequence Learning,,2025.1.1,None,2025-10-01 10h45.04.605132 +0530,
50,c,33,33,9,c,1,0.4057577069615945,None,,,,,9,33,33,2,547.5850632919464,,547.5755613749498,547.5850632919464,548.5727069999557,548.5727069999557,548.5727069999557,548.5727069999557,548.5772979999892,549.5728399999789,549.5728399999789,549.9912961249938,,,,,c,1,0.4057577069615945,None,1,001,2025-10-01_10h44.56.774, Motor Sequence Learning,,2025.1.1,None,2025-10-01 10h45.04.605132 +0530,
150,v,34,34,9,v,1,0.4501189579605125,None,,,,,9,34,34,1,550.0007727499469,,549.9919104169821,550.0007727499469,550.9892628749949,550.9892628749949,550.9892628749949,550.9892628749949,550.9933506669477,551.9894197499962,551.9894197499962,552.4519882079912,,,,,v,1,0.4501189579605125,None,1,001,2025-10-01_10h44.56.774, Motor Sequence Learning,,2025.1.1,None,2025-10-01 10h45.04.605132 +0530,
-150,z,35,35,6,z,1,0.5464128750027157,None,,,,,6,35,35,3,552.4559147499967,,552.4524405829725,552.4559147499967,553.4455075829756,553.4455075829756,553.4455075829756,553.4455075829756,553.4455075829756,554.4449613749748,554.4449613749748,554.9950512079522,,,,,z,1,0.5464128750027157,None,1,001,2025-10-01_10h44.56.774, Motor Sequence Learning,,2025.1.1,None,2025-10-01 10h45.04.605132 +0530,
50,c,36,36,10,c,1,0.30249074898893014,None,,,,,10,36,36,2,555.0050687499461,,554.9955842079944,555.0050687499461,555.9943480419461,555.9943480419461,555.9943480419461,555.9943480419461,555.9943480419461,556.9940231249784,556.9940231249784,557.3081220419845,,,,,c,1,0.30249074898893014,None,1,001,2025-10-01_10h44.56.774, Motor Sequence Learning,,2025.1.1,None,2025-10-01 10h45.04.605132 +0530,
50,c,37,37,11,c,1,0.43978020804934204,None,,,,,11,37,37,2,557.3171084999922,,557.3087279579486,557.3171084999922,558.3061478329473,558.3061478329473,558.3061478329473,558.3061478329473,558.3113669999875,559.3064587079571,559.3064587079571,559.7578941669781,,,,,c,1,0.43978020804934204,None,1,001,2025-10-01_10h44.56.774, Motor Sequence Learning,,2025.1.1,None,2025-10-01 10h45.04.605132 +0530,
50,c,38,38,12,c,1,0.3003049989929423,None,,,,,12,38,38,2,559.7657226669835,,559.7585181669565,559.7657226669835,560.7560049579479,560.7560049579479,560.7560049579479,560.7560049579479,560.7601606669487,561.7560330829583,561.7560330829583,562.0673749579582,,,,,c,1,0.3003049989929423,None,1,001,2025-10-01_10h44.56.774, Motor Sequence Learning,,2025.1.1,None,2025-10-01 10h45.04.605132 +0530,
150,v,39,39,10,v,1,0.3903039160068147,None,,,,,10,39,39,1,562.071862916986,,562.0678403329803,562.071862916986,563.060915207956,563.060915207956,563.060915207956,563.060915207956,563.060915207956,564.0608992499765,564.0608992499765,564.457973166951,,,,,v,1,0.3903039160068147,None,1,001,2025-10-01_10h44.56.774, Motor Sequence Learning,,2025.1.1,None,2025-10-01 10h45.04.605132 +0530,
50,c,40,40,13,c,1,0.3341253739781678,None,,,,,13,40,40,2,564.4664195829537,,564.4585577079561,564.4664195829537,565.4561424169806,565.4561424169806,565.4561424169806,565.4561424169806,565.4614157079486,566.4560320829623,566.4560320829623,566.7968747919658,,,,,c,1,0.3341253739781678,None,1,001,2025-10-01_10h44.56.774, Motor Sequence Learning,,2025.1.1,None,2025-10-01 10h45.04.605132 +0530,
-150,z,41,41,7,x,0,0.49977891601156443,None,,,,,7,41,41,3,566.8056024579564,,566.7974335000035,566.8056024579564,567.7940819169744,567.7940819169744,567.7940819169744,567.7940819169744,567.7940819169744,568.7942722919979,568.7942722919979,569.3081449169549,,,,,x,0,0.49977891601156443,None,1,001,2025-10-01_10h44.56.774, Motor Sequence Learning,,2025.1.1,None,2025-10-01 10h45.04.605132 +0530,
50,c,42,42,14,c,1,0.473088790953625,None,,,,,14,42,42,2,569.315463457955,,569.3086855419679,569.315463457955,570.3060672499705,570.3060672499705,570.3060672499705,570.3060672499705,570.3112829999882,571.3059933329932,571.3059933329932,571.7913384999847,,,,,c,1,0.473088790953625,None,1,001,2025-10-01_10h44.56.774, Motor Sequence Learning,,2025.1.1,None,2025-10-01 10h45.04.605132 +0530,
-150,z,43,43,8,z,1,0.314819915976841,None,,,,,8,43,43,3,571.799649166991,,571.7918984999997,571.799649166991,572.7894054999924,572.7894054999924,572.7894054999924,572.7894054999924,572.7937103330041,573.7892551669502,573.7892551669502,574.1085723330034,,,,,z,1,0.314819915976841,None,1,001,2025-10-01_10h44.56.774, Motor Sequence Learning,,2025.1.1,None,2025-10-01 10h45.04.605132 +0530,
50,c,44,44,15,c,1,0.3409617909928784,None,,,,,15,44,44,2,574.117073707981,,574.1091307919705,574.117073707981,575.1061404169886,575.1061404169886,575.1061404169886,575.1061404169886,575.1112002919544,576.1060442079906,576.1060442079906,576.4580511249951,,,,,c,1,0.3409617909928784,None,1,001,2025-10-01_10h44.56.774, Motor Sequence Learning,,2025.1.1,None,2025-10-01 10h45.04.605132 +0530,
-50,x,45,45,9,x,1,0.6560111660510302,None,,,,,9,45,45,0,576.4663740419783,,576.4586485829786,576.4663740419783,577.4560395829612,577.4560395829612,577.4560395829612,577.4560395829612,577.4602732919739,578.4559687079745,578.4559687079745,579.1246000829851,,,,,x,1,0.6560111660510302,None,1,001,2025-10-01_10h44.56.774, Motor Sequence Learning,,2025.1.1,None,2025-10-01 10h45.04.605132 +0530,
-150,z,46,46,9,z,1,0.31236983300186694,None,,,,,9,46,46,3,579.1331078749499,,579.1252076249802,579.1331078749499,580.1225859169499,580.1225859169499,580.1225859169499,580.1225859169499,580.1266205830034,581.1226190829766,581.1226190829766,581.4414348329883,,,,,z,1,0.31236983300186694,None,1,001,2025-10-01_10h44.56.774, Motor Sequence Learning,,2025.1.1,None,2025-10-01 10h45.04.605132 +0530,
150,v,47,47,11,v,1,0.3725179579923861,None,,,,,11,47,47,1,581.4500647919485,,581.4420200829627,581.4500647919485,582.4393672499573,582.4393672499573,582.4393672499573,582.4393672499573,582.4440365419723,583.4392917499645,583.4392917499645,583.8251592919696,,,,,v,1,0.3725179579923861,None,1,001,2025-10-01_10h44.56.774, Motor Sequence Learning,,2025.1.1,None,2025-10-01 10h45.04.605132 +0530,
-150,z,48,48,10,z,1,0.40024345798883587,None,,,,,10,48,48,3,583.8335101249977,,583.8257218749495,583.8335101249977,584.8227092499728,584.8227092499728,584.8227092499728,584.8227092499728,584.8267478329944,585.8226016249973,585.8226016249973,586.2342624579906,,,,,z,1,0.40024345798883587,None,1,001,2025-10-01_10h44.56.774, Motor Sequence Learning,,2025.1.1,None,2025-10-01 10h45.04.605132 +0530,
150,v,49,49,12,v,1,0.5362027910305187,None,,,,,12,49,49,1,586.2385177499964,,586.234718666994,586.2385177499964,587.2274989169673,587.2274989169673,587.2274989169673,587.2274989169673,587.2274989169673,588.227502166992,588.227502166992,588.7747852499597,,,,,v,1,0.5362027910305187,None,1,001,2025-10-01_10h44.56.774, Motor Sequence Learning,,2025.1.1,None,2025-10-01 10h45.04.605132 +0530,
