stair.thisTrialN,stair.stepSize,stair.intensity,thisRow.t,notes,trial.started,fixation.started,fixation.stopped,grating.started,key_resp.started,grating.stopped,trial.stopped,corrAns,tilt,key_resp.corr,stair.response,key_resp.rt,participant,session,date,expName,expVersion,psychopyVersion,frameRate,expStart,
0,2,10.0,0.017532666999613866,,0.004261750000296161,0.017532666999613866,0.5189551670046058,0.5189551670046058,0.5189551670046058,0.8086519999997108,1.3229951250032173,right,10.0,1,1,0.6023923340035253,1,001,2025-09-02_20h30.21.564,adaptive_staircase,,2025.1.1,None,2025-09-02 20h30.28.813118 +0530,
1,2,8.0,1.4083203330010292,,1.3230984580004588,1.4083203330010292,1.821428167000704,1.821428167000704,1.821428167000704,2.107840208002017,2.5394948750035837,right,8.0,1,1,0.7074688749999041,1,001,2025-09-02_20h30.21.564,adaptive_staircase,,2025.1.1,None,2025-09-02 20h30.28.813118 +0530,
2,2,6.0,2.562477042003593,,2.5397981670030276,2.562477042003593,3.0379592919998686,3.0379592919998686,3.0379592919998686,3.325199999999313,4.159219375003886,right,6.0,1,1,1.1187863329978427,1,001,2025-09-02_20h30.21.564,adaptive_staircase,,2025.1.1,None,2025-09-02 20h30.28.813118 +0530,
3,2,4.0,4.171436667005764,,4.159486750002543,4.171436667005764,4.654751207999652,4.654751207999652,4.654751207999652,4.94189266700414,5.406438875004824,left,-4.0,1,1,0.7441465000010794,1,001,2025-09-02_20h30.21.564,adaptive_staircase,,2025.1.1,None,2025-09-02 20h30.28.813118 +0530,
4,2,2.0,5.413621375002549,,5.406823500001337,5.413621375002549,5.9047919170043315,5.9047919170043315,5.9047919170043315,6.191324833002,6.60630758300249,left,-2.0,1,1,0.6930362499988405,1,001,2025-09-02_20h30.21.564,adaptive_staircase,,2025.1.1,None,2025-09-02 20h30.28.813118 +0530,
5,2,1.0,6.613293000002159,,6.606643292005174,6.613293000002159,7.104830542004493,7.104830542004493,7.104830542004493,7.392229208002391,7.973174750004546,right,1.0,1,1,0.856943874998251,1,001,2025-09-02_20h30.21.564,adaptive_staircase,,2025.1.1,None,2025-09-02 20h30.28.813118 +0530,
6,2,1.0,7.9804492500043125,,7.97360666700115,7.9804492500043125,8.471535917000438,8.471535917000438,8.471535917000438,8.757623333003721,9.289903458004119,left,-1.0,1,1,0.8062122499977704,1,001,2025-09-02_20h30.21.564,adaptive_staircase,,2025.1.1,None,2025-09-02 20h30.28.813118 +0530,
7,1,1.0,9.297108042002947,,9.290289583004778,9.297108042002947,9.787996500002919,9.787996500002919,9.787996500002919,10.075307708000764,10.690501042001415,right,1.0,0,0,0.897856084004161,1,001,2025-09-02_20h30.21.564,adaptive_staircase,,2025.1.1,None,2025-09-02 20h30.28.813118 +0530,
8,1,2.0,10.695412958004454,,10.690982750005787,10.695412958004454,11.187926083002822,11.187926083002822,11.187926083002822,11.474938542000018,11.959836708003422,left,-2.0,1,1,0.767814749997342,1,001,2025-09-02_20h30.21.564,adaptive_staircase,,2025.1.1,None,2025-09-02 20h30.28.813118 +0530,
9,1,2.0,11.971376667002914,,11.960110292005993,11.971376667002914,12.454729707998922,12.454729707998922,12.454729707998922,12.741044500005955,13.189801042004547,left,-2.0,1,1,0.7228855830035172,1,001,2025-09-02_20h30.21.564,adaptive_staircase,,2025.1.1,None,2025-09-02 20h30.28.813118 +0530,
10,1,2.0,13.196945042000152,,13.190222917000938,13.196945042000152,13.68806058300106,13.68806058300106,13.68806058300106,13.974861667004006,14.54033829200489,right,2.0,1,1,0.8486011249988223,1,001,2025-09-02_20h30.21.564,adaptive_staircase,,2025.1.1,None,2025-09-02 20h30.28.813118 +0530,
11,1,1.0,14.54474708300404,,14.540648375004821,14.54474708300404,15.037872375003644,15.037872375003644,15.037872375003644,15.325050708001072,16.023079417005647,right,1.0,1,1,0.9778059169984772,1,001,2025-09-02_20h30.21.564,adaptive_staircase,,2025.1.1,None,2025-09-02 20h30.28.813118 +0530,
12,1,1.0,16.030218917003367,,16.023435125003743,16.030218917003367,16.521353000003728,16.521353000003728,16.521353000003728,16.808226250002917,17.50688458300283,left,-1.0,1,1,0.9822372920025373,1,001,2025-09-02_20h30.21.564,adaptive_staircase,,2025.1.1,None,2025-09-02 20h30.28.813118 +0530,
13,1,1.0,17.51117383300152,,17.50718595800572,17.51117383300152,18.004711000001407,18.004711000001407,18.004711000001407,18.291427667005337,19.006547000004502,right,1.0,1,1,0.9877340409948374,1,001,2025-09-02_20h30.21.564,adaptive_staircase,,2025.1.1,None,2025-09-02 20h30.28.813118 +0530,
14,1,1.0,19.01395337500435,,19.00695891700161,19.01395337500435,19.504797583002073,19.504797583002073,19.504797583002073,19.7915530829996,20.439621417004673,right,1.0,1,1,0.9216610419971403,1,001,2025-09-02_20h30.21.564,adaptive_staircase,,2025.1.1,None,2025-09-02 20h30.28.813118 +0530,
15,1,1.0,20.4464095000003,,20.43990695800312,20.4464095000003,20.93793608299893,20.93793608299893,20.93793608299893,21.224431750000804,21.739646250003716,left,-1.0,1,1,0.7916610840038629,1,001,2025-09-02_20h30.21.564,adaptive_staircase,,2025.1.1,None,2025-09-02 20h30.28.813118 +0530,
16,1,1.0,21.746858167003666,,21.74010220800119,21.746858167003666,22.238194458004727,22.238194458004727,22.238194458004727,22.524638583003252,23.076198375005333,left,-1.0,1,1,0.8343056250014342,1,001,2025-09-02_20h30.21.564,adaptive_staircase,,2025.1.1,None,2025-09-02 20h30.28.813118 +0530,
17,1,1.0,23.088112625002395,,23.076458208000986,23.088112625002395,23.57151566700486,23.57151566700486,23.57151566700486,23.85917179199896,24.256475500005763,left,-1.0,1,1,0.6809187500039116,1,001,2025-09-02_20h30.21.564,adaptive_staircase,,2025.1.1,None,2025-09-02 20h30.28.813118 +0530,
18,1,1.0,24.260906333001913,,24.256837000000814,24.260906333001913,24.75480412500474,24.75480412500474,24.75480412500474,25.04177300000447,25.623246792005375,left,-1.0,1,1,0.8535108340001898,1,001,2025-09-02_20h30.21.564,adaptive_staircase,,2025.1.1,None,2025-09-02 20h30.28.813118 +0530,
19,1,1.0,25.63059479200456,,25.623670000000857,25.63059479200456,26.121443208001438,26.121443208001438,26.121443208001438,26.4083032080016,26.939815417004866,right,1.0,1,1,0.803867957998591,1,001,2025-09-02_20h30.21.564,adaptive_staircase,,2025.1.1,None,2025-09-02 20h30.28.813118 +0530,
20,1,1.0,26.947183458003565,,26.94023370800278,26.947183458003565,27.43806058300106,27.43806058300106,27.43806058300106,27.72493004200078,28.242312624999613,right,1.0,1,1,0.8002317089994904,1,001,2025-09-02_20h30.21.564,adaptive_staircase,,2025.1.1,None,2025-09-02 20h30.28.813118 +0530,
21,1,1.0,28.254698458003986,,28.24256645800051,28.254698458003986,28.73816925000574,28.73816925000574,28.73816925000574,29.024584375001723,29.972902542001975,right,1.0,1,1,1.226096292004513,1,001,2025-09-02_20h30.21.564,adaptive_staircase,,2025.1.1,None,2025-09-02 20h30.28.813118 +0530,
22,1,1.0,29.979843166998762,,29.973217875005503,29.979843166998762,30.471368167003675,30.471368167003675,30.471368167003675,30.757847125001717,31.272977708002145,right,1.0,1,1,0.7988461249988177,1,001,2025-09-02_20h30.21.564,adaptive_staircase,,2025.1.1,None,2025-09-02 20h30.28.813118 +0530,
23,1,1.0,31.27714533299877,,31.27329974999884,31.27714533299877,31.771450833002746,31.771450833002746,31.771450833002746,32.058298750001995,32.55700670800434,left,-1.0,1,1,0.7777252500018221,1,001,2025-09-02_20h30.21.564,adaptive_staircase,,2025.1.1,None,2025-09-02 20h30.28.813118 +0530,
24,1,1.0,32.56461712500459,,32.55759454200597,32.56461712500459,33.05462795800122,33.05462795800122,33.05462795800122,33.34181579200231,33.857210333000694,right,1.0,1,1,0.7895203330044751,1,001,2025-09-02_20h30.21.564,adaptive_staircase,,2025.1.1,None,2025-09-02 20h30.28.813118 +0530,
25,1,1.0,33.86439133300155,,33.857841208002355,33.86439133300155,34.354865291999886,34.354865291999886,34.354865291999886,34.64224358300271,35.17574204200355,right,1.0,1,1,0.8192266669939272,1,001,2025-09-02_20h30.21.564,adaptive_staircase,,2025.1.1,None,2025-09-02 20h30.28.813118 +0530,
26,1,1.0,35.18814787500014,,35.176006500005315,35.18814787500014,35.67132645800302,35.67132645800302,35.67132645800302,35.958260999999766,36.473046708000766,right,1.0,1,1,0.7877926250002929,1,001,2025-09-02_20h30.21.564,adaptive_staircase,,2025.1.1,None,2025-09-02 20h30.28.813118 +0530,
27,1,1.0,36.47948312500375,,36.47334879200207,36.47948312500375,36.97132879200217,36.97132879200217,36.97132879200217,37.25868679200357,37.82613654200395,right,1.0,1,1,0.8517632080038311,1,001,2025-09-02_20h30.21.564,adaptive_staircase,,2025.1.1,None,2025-09-02 20h30.28.813118 +0530,
28,1,1.0,37.838025791999826,,37.82639583299897,37.838025791999826,38.32555775000219,38.32555775000219,38.32555775000219,38.62133208299929,39.07351795800059,right,1.0,1,1,0.7335401249947608,1,001,2025-09-02_20h30.21.564,adaptive_staircase,,2025.1.1,None,2025-09-02 20h30.28.813118 +0530,
29,1,1.0,39.08114404200023,,39.07412650000333,39.08114404200023,39.57134041700192,39.57134041700192,39.57134041700192,39.857952708000084,40.27343225000368,right,1.0,1,1,0.6896684589955839,1,001,2025-09-02_20h30.21.564,adaptive_staircase,,2025.1.1,None,2025-09-02 20h30.28.813118 +0530,
30,1,1.0,40.28033575000154,,40.27388712500397,40.28033575000154,40.77126904200122,40.77126904200122,40.77126904200122,41.05817533300433,41.373036125005456,right,1.0,1,1,0.5918377499983762,1,001,2025-09-02_20h30.21.564,adaptive_staircase,,2025.1.1,None,2025-09-02 20h30.28.813118 +0530,
31,1,1.0,41.37987687500572,,41.37344595800096,41.37987687500572,41.871265000001586,41.871265000001586,41.871265000001586,42.15865670800122,42.642262042005314,left,-1.0,1,1,0.7687006250052946,1,001,2025-09-02_20h30.21.564,adaptive_staircase,,2025.1.1,None,2025-09-02 20h30.28.813118 +0530,
32,1,1.0,42.65469524999935,,42.642525292001665,42.65469524999935,43.137986166999326,43.137986166999326,43.137986166999326,43.425183208004455,43.97538683300081,left,-1.0,1,1,0.8337417919974541,1,001,2025-09-02_20h30.21.564,adaptive_staircase,,2025.1.1,None,2025-09-02 20h30.28.813118 +0530,
33,1,1.0,43.98798316700413,,43.97564787500596,43.98798316700413,44.471271542002796,44.471271542002796,44.471271542002796,44.75868175000505,45.12351666700124,left,-1.0,1,1,0.6486960410038591,1,001,2025-09-02_20h30.21.564,adaptive_staircase,,2025.1.1,None,2025-09-02 20h30.28.813118 +0530,
34,1,1.0,45.128010208005435,,45.12392404200364,45.128010208005435,45.62129658300546,45.62129658300546,45.62129658300546,45.908277125003224,46.14209608300007,left,-1.0,1,1,0.5195188750003581,1,001,2025-09-02_20h30.21.564,adaptive_staircase,,2025.1.1,None,2025-09-02 20h30.28.813118 +0530,
35,0,1.0,46.154769542001304,,46.14235625000583,46.154769542001304,46.637885000003735,46.637885000003735,46.637885000003735,46.92439566700341,47.04284133300098,right,1.0,0,0,0.4019293329984066,1,001,2025-09-02_20h30.21.564,adaptive_staircase,,2025.1.1,None,2025-09-02 20h30.28.813118 +0530,
36,0,1.0,47.0547043750048,,47.04311370800133,47.0547043750048,47.54309933300101,47.54309933300101,47.54309933300101,47.83794000000489,48.02299291700183,right,1.0,1,1,0.47773462499753805,1,001,2025-09-02_20h30.21.564,adaptive_staircase,,2025.1.1,None,2025-09-02 20h30.28.813118 +0530,
37,0,1.0,48.027446958003566,,48.0233672500035,48.027446958003566,48.521338582999306,48.521338582999306,48.521338582999306,48.8084491250047,48.859636000001046,right,1.0,0,0,0.3354992079985095,1,001,2025-09-02_20h30.21.564,adaptive_staircase,,2025.1.1,None,2025-09-02 20h30.28.813118 +0530,
38,0,1.0,48.87129695800104,,48.85989804199926,48.87129695800104,49.360781333001796,49.360781333001796,49.360781333001796,49.658165833003295,49.789828125001804,left,-1.0,0,0,0.4171060410008067,1,001,2025-09-02_20h30.21.564,adaptive_staircase,,2025.1.1,None,2025-09-02 20h30.28.813118 +0530,
39,0,1.0,49.79672837500402,,49.79019620799954,49.79672837500402,50.28788825000083,50.28788825000083,50.28788825000083,50.575215917000605,50.806854333000956,right,1.0,1,1,0.5059450000044308,1,001,2025-09-02_20h30.21.564,adaptive_staircase,,2025.1.1,None,2025-09-02 20h30.28.813118 +0530,
40,0,1.0,50.81367437500012,,50.807265750001534,50.81367437500012,51.30458316700242,51.30458316700242,51.30458316700242,51.59107983300055,51.93945783300296,left,-1.0,1,1,0.6233042079984443,1,001,2025-09-02_20h30.21.564,adaptive_staircase,,2025.1.1,None,2025-09-02 20h30.28.813118 +0530,
41,5,1.0,51.946258458003285,,51.93980020800518,51.946258458003285,52.438060917003895,52.438060917003895,52.438060917003895,52.72430787500343,52.9564010000031,left,-1.0,1,1,0.5087723749966244,1,001,2025-09-02_20h30.21.564,adaptive_staircase,,2025.1.1,None,2025-09-02 20h30.28.813118 +0530,
42,5,1.0,52.96340054200118,,52.956771292003396,52.96340054200118,53.454556832999515,53.454556832999515,53.454556832999515,53.74187075000373,53.840145667003526,right,1.0,0,0,0.37221270800364437,1,001,2025-09-02_20h30.21.564,adaptive_staircase,,2025.1.1,None,2025-09-02 20h30.28.813118 +0530,
43,5,6.0,53.8474820420015,,53.84062083300523,53.8474820420015,54.337915500000236,54.337915500000236,54.337915500000236,54.62422137500107,54.80636283300555,left,-6.0,0,0,0.45681762500316836,1,001,2025-09-02_20h30.21.564,adaptive_staircase,,2025.1.1,None,2025-09-02 20h30.28.813118 +0530,
44,5,11.0,54.81320491700171,,54.80671441700542,54.81320491700171,55.30468162499892,55.30468162499892,55.30468162499892,55.59218383300322,55.67307579200133,left,-11.0,1,1,0.356038541001908,1,001,2025-09-02_20h30.21.564,adaptive_staircase,,2025.1.1,None,2025-09-02 20h30.28.813118 +0530,
45,5,11.0,55.67997124999965,,55.67352420800307,55.67997124999965,56.17136612500326,56.17136612500326,56.17136612500326,56.45796225000231,56.873664792001364,right,11.0,1,1,0.6902456250027171,1,001,2025-09-02_20h30.21.564,adaptive_staircase,,2025.1.1,None,2025-09-02 20h30.28.813118 +0530,
46,5,11.0,56.880486500005645,,56.8741361670036,56.880486500005645,57.3712397920026,57.3712397920026,57.3712397920026,57.658508375003294,58.123141250005574,right,11.0,1,1,0.7474544159995276,1,001,2025-09-02_20h30.21.564,adaptive_staircase,,2025.1.1,None,2025-09-02 20h30.28.813118 +0530,
47,5,6.0,58.127254958002595,,58.123458708003454,58.127254958002595,58.62140850000287,58.62140850000287,58.62140850000287,58.908517208001285,59.25687695800298,left,-6.0,1,1,0.6252961659993161,1,001,2025-09-02_20h30.21.564,adaptive_staircase,,2025.1.1,None,2025-09-02 20h30.28.813118 +0530,
48,5,6.0,59.26441416700254,,59.257513958000345,59.26441416700254,59.75465920800343,59.75465920800343,59.75465920800343,60.04128045800462,60.32363691700448,left,-6.0,1,1,0.5558812500021304,1,001,2025-09-02_20h30.21.564,adaptive_staircase,,2025.1.1,None,2025-09-02 20h30.28.813118 +0530,
49,5,6.0,60.33099604200106,,60.32425874999899,60.33099604200106,60.82111625000107,60.82111625000107,60.82111625000107,61.109001500000886,61.33990574999916,right,6.0,1,1,0.5045042909987387,1,001,2025-09-02_20h30.21.564,adaptive_staircase,,2025.1.1,None,2025-09-02 20h30.28.813118 +0530,
50,5,1.0,61.346769167001185,,61.340318708003906,61.346769167001185,61.83791004199884,61.83791004199884,61.83791004199884,62.125701125005435,62.273233083004015,left,-1.0,1,1,0.43265899999823887,1,001,2025-09-02_20h30.21.564,adaptive_staircase,,2025.1.1,None,2025-09-02 20h30.28.813118 +0530,
51,5,1.0,62.2776678750015,,62.27354337500583,62.2776678750015,62.77137916700303,62.77137916700303,62.77137916700303,63.05775554200227,63.323308708000695,right,1.0,1,1,0.5471635000067181,1,001,2025-09-02_20h30.21.564,adaptive_staircase,,2025.1.1,None,2025-09-02 20h30.28.813118 +0530,
52,5,1.0,63.33089654200012,,63.323646208002174,63.33089654200012,63.82125987500331,63.82125987500331,63.82125987500331,64.10778633299924,64.2230434170051,left,-1.0,1,1,0.38786212500417605,1,001,2025-09-02_20h30.21.564,adaptive_staircase,,2025.1.1,None,2025-09-02 20h30.28.813118 +0530,
53,5,1.0,64.2310189580021,,64.22350166700198,64.2310189580021,64.72127966699918,64.72127966699918,64.72127966699918,65.0086386250041,65.19208783300564,right,1.0,1,1,0.4692162499995902,1,001,2025-09-02_20h30.21.564,adaptive_staircase,,2025.1.1,None,2025-09-02 20h30.28.813118 +0530,
54,5,1.0,65.20477545800532,,65.19234558300377,65.20477545800532,65.68793629200081,65.68793629200081,65.68793629200081,65.97437229200295,66.10648162500001,right,1.0,0,0,0.4096605000013369,1,001,2025-09-02_20h30.21.564,adaptive_staircase,,2025.1.1,None,2025-09-02 20h30.28.813118 +0530,
55,5,6.0,66.11384558300051,,66.10682754200388,66.11384558300051,66.60452791699936,66.60452791699936,66.60452791699936,66.89084429200011,67.55647145800322,right,6.0,0,0,0.9389441669991356,1,001,2025-09-02_20h30.21.564,adaptive_staircase,,2025.1.1,None,2025-09-02 20h30.28.813118 +0530,
56,5,11.0,67.56429508300062,,67.55686195800081,67.56429508300062,68.05467304200283,68.05467304200283,68.05467304200283,68.34040258300229,69.34030870800052,left,-11.0,1,1,1.2808479580053245,1,001,2025-09-02_20h30.21.564,adaptive_staircase,,2025.1.1,None,2025-09-02 20h30.28.813118 +0530,
57,5,11.0,69.34509133300162,,69.34076774999994,69.34509133300162,69.83804912499909,69.83804912499909,69.83804912499909,70.12501575000351,70.4901475000006,right,11.0,1,1,0.6493325830015237,1,001,2025-09-02_20h30.21.564,adaptive_staircase,,2025.1.1,None,2025-09-02 20h30.28.813118 +0530,
58,5,11.0,70.49542033300531,,70.49060504200315,70.49542033300531,70.98792025000148,70.98792025000148,70.98792025000148,71.27453525000601,71.50911254200037,right,11.0,1,1,0.5183787919959286,1,001,2025-09-02_20h30.21.564,adaptive_staircase,,2025.1.1,None,2025-09-02 20h30.28.813118 +0530,
59,5,6.0,71.52122358300403,,71.50938891700207,71.52122358300403,72.00471254200238,72.00471254200238,72.00471254200238,72.29151387500315,72.49367520800297,left,-6.0,1,1,0.4846132079983363,1,001,2025-09-02_20h30.21.564,adaptive_staircase,,2025.1.1,None,2025-09-02 20h30.28.813118 +0530,
60,5,6.0,72.50450508300128,,72.49395275000279,72.50450508300128,72.99241187500593,72.99241187500593,72.99241187500593,73.29103704199952,73.52367979200062,right,6.0,1,1,0.523945041000843,1,001,2025-09-02_20h30.21.564,adaptive_staircase,,2025.1.1,None,2025-09-02 20h30.28.813118 +0530,
61,5,6.0,73.53124079199915,,73.5241362500019,73.53124079199915,74.02142966700194,74.02142966700194,74.02142966700194,74.3074024170055,74.64001454200479,right,6.0,1,1,0.6059545410025748,1,001,2025-09-02_20h30.21.564,adaptive_staircase,,2025.1.1,None,2025-09-02 20h30.28.813118 +0530,
62,5,1.0,74.64764512500551,,74.64047450000362,74.64764512500551,75.13808616700408,75.13808616700408,75.13808616700408,75.42538495800545,75.62287641700095,right,1.0,0,0,0.4811680420025368,1,001,2025-09-02_20h30.21.564,adaptive_staircase,,2025.1.1,None,2025-09-02 20h30.28.813118 +0530,
63,5,6.0,75.62748987500527,,75.62326420799945,75.62748987500527,76.12127129200235,76.12127129200235,76.12127129200235,76.40812612500304,76.80901033300324,left,-6.0,1,1,0.6840440000014496,1,001,2025-09-02_20h30.21.564,adaptive_staircase,,2025.1.1,None,2025-09-02 20h30.28.813118 +0530,
64,5,6.0,76.82124537500204,,76.8092813750045,76.82124537500204,77.30462729200372,77.30462729200372,77.30462729200372,77.59111625000514,77.85603154200362,left,-6.0,1,1,0.5435872079979163,1,001,2025-09-02_20h30.21.564,adaptive_staircase,,2025.1.1,None,2025-09-02 20h30.28.813118 +0530,
65,5,6.0,77.86299941700418,,77.85632804200577,77.86299941700418,78.3546215000024,78.3546215000024,78.3546215000024,78.64176833300007,78.95654158300022,right,6.0,1,1,0.5925374590005958,1,001,2025-09-02_20h30.21.564,adaptive_staircase,,2025.1.1,None,2025-09-02 20h30.28.813118 +0530,
66,5,1.0,78.96391408300406,,78.9569771250026,78.96391408300406,79.45451770799991,79.45451770799991,79.45451770799991,79.74145729200245,80.19013333300245,left,-1.0,1,1,0.7287466249981662,1,001,2025-09-02_20h30.21.564,adaptive_staircase,,2025.1.1,None,2025-09-02 20h30.28.813118 +0530,
67,5,1.0,80.19766262500343,,80.19049695799913,80.19766262500343,80.6879021670029,80.6879021670029,80.6879021670029,80.9748189170059,81.45637145799992,left,-1.0,1,1,0.7562742090012762,1,001,2025-09-02_20h30.21.564,adaptive_staircase,,2025.1.1,None,2025-09-02 20h30.28.813118 +0530,
68,5,1.0,81.46380316700379,,81.45671750000474,81.46380316700379,81.95472933300334,81.95472933300334,81.95472933300334,82.24148787500599,82.7402696249992,left,-1.0,1,1,0.7744335840034182,1,001,2025-09-02_20h30.21.564,adaptive_staircase,,2025.1.1,None,2025-09-02 20h30.28.813118 +0530,
69,5,1.0,82.74722666700109,,82.74074941700383,82.74722666700109,83.23808345800353,83.23808345800353,83.23808345800353,83.52514412500022,84.12358558300184,left,-1.0,1,1,0.8739155420043971,1,001,2025-09-02_20h30.21.564,adaptive_staircase,,2025.1.1,None,2025-09-02 20h30.28.813118 +0530,
70,5,1.0,84.13121041699924,,84.12406133300101,84.13121041699924,84.62144804200216,84.62144804200216,84.62144804200216,84.90801054199983,85.62342016700131,right,1.0,1,1,0.9966652500006603,1,001,2025-09-02_20h30.21.564,adaptive_staircase,,2025.1.1,None,2025-09-02 20h30.28.813118 +0530,
71,5,1.0,85.62812370800384,,85.62394470800064,85.62812370800384,86.12118833300337,86.12118833300337,86.12118833300337,86.40861495800345,86.98950875000446,left,-1.0,0,0,0.8658992499986198,1,001,2025-09-02_20h30.21.564,adaptive_staircase,,2025.1.1,None,2025-09-02 20h30.28.813118 +0530,
72,5,6.0,86.99410762500338,,86.98988858300436,86.99410762500338,87.48773749999964,87.48773749999964,87.48773749999964,87.77498025000386,88.5564145419994,left,-6.0,0,0,1.0542050840012962,1,001,2025-09-02_20h30.21.564,adaptive_staircase,,2025.1.1,None,2025-09-02 20h30.28.813118 +0530,
73,5,11.0,88.56360787500307,,88.55682179200085,88.56360787500307,89.05464850000135,89.05464850000135,89.05464850000135,89.34132070800115,89.87360220800474,right,11.0,0,0,0.8032511669953237,1,001,2025-09-02_20h30.21.564,adaptive_staircase,,2025.1.1,None,2025-09-02 20h30.28.813118 +0530,
74,5,16.0,89.88065066700074,,89.87412220799888,89.88065066700074,90.37133924999944,90.37133924999944,90.37133924999944,90.65788670800248,91.20638670799963,right,16.0,1,1,0.8215849580010399,1,001,2025-09-02_20h30.21.564,adaptive_staircase,,2025.1.1,None,2025-09-02 20h30.28.813118 +0530,
75,5,16.0,91.2134115420049,,91.20677083299961,91.2134115420049,91.70462037499965,91.70462037499965,91.70462037499965,91.99159120800323,93.00677775000077,right,16.0,1,1,1.2953398750032648,1,001,2025-09-02_20h30.21.564,adaptive_staircase,,2025.1.1,None,2025-09-02 20h30.28.813118 +0530,
76,5,16.0,93.01406345800206,,93.0072657080018,93.01406345800206,93.50454637499934,93.50454637499934,93.50454637499934,93.79093566699885,94.07388545800495,right,16.0,1,1,0.5613822500017704,1,001,2025-09-02_20h30.21.564,adaptive_staircase,,2025.1.1,None,2025-09-02 20h30.28.813118 +0530,
77,5,11.0,94.08088954200502,,94.07436287499877,94.08088954200502,94.57111979200272,94.57111979200272,94.57111979200272,94.85781216699979,95.3235523330004,right,11.0,1,1,0.7458126249985071,1,001,2025-09-02_20h30.21.564,adaptive_staircase,,2025.1.1,None,2025-09-02 20h30.28.813118 +0530,
78,5,11.0,95.33097645800444,,95.32400145800057,95.33097645800444,95.82122954200167,95.82122954200167,95.82122954200167,96.10818825000024,96.74218604199996,right,11.0,1,1,0.9176093749993015,1,001,2025-09-02_20h30.21.564,adaptive_staircase,,2025.1.1,None,2025-09-02 20h30.28.813118 +0530,
79,5,11.0,96.75464487499994,,96.7424527080002,96.75464487499994,97.24229741700401,97.24229741700401,97.24229741700401,97.53791187499883,98.07295229200099,left,-11.0,1,1,0.8205855419946602,1,001,2025-09-02_20h30.21.564,adaptive_staircase,,2025.1.1,None,2025-09-02 20h30.28.813118 +0530,
80,5,6.0,98.07994220800174,,98.07334091699886,98.07994220800174,98.57124079200003,98.57124079200003,98.57124079200003,98.8577844169995,99.20615725000243,right,6.0,1,1,0.621431332998327,1,001,2025-09-02_20h30.21.564,adaptive_staircase,,2025.1.1,None,2025-09-02 20h30.28.813118 +0530,
81,5,6.0,99.21314862500003,,99.20652633300051,99.21314862500003,99.70476408300601,99.70476408300601,99.70476408300601,99.99113833300362,100.156822500001,left,-6.0,1,1,0.4489476249946165,1,001,2025-09-02_20h30.21.564,adaptive_staircase,,2025.1.1,None,2025-09-02 20h30.28.813118 +0530,
82,5,6.0,100.16180104199884,,100.15733658300451,100.16180104199884,100.6543448750017,100.6543448750017,100.6543448750017,100.94080254200526,101.14014754199889,right,6.0,1,1,0.4712944169950788,1,001,2025-09-02_20h30.21.564,adaptive_staircase,,2025.1.1,None,2025-09-02 20h30.28.813118 +0530,
83,5,1.0,101.14756133300398,,101.14062562500476,101.14756133300398,101.63778066699888,101.63778066699888,101.63778066699888,101.92530145800265,102.52364420800586,left,-1.0,1,1,0.8789015410002321,1,001,2025-09-02_20h30.21.564,adaptive_staircase,,2025.1.1,None,2025-09-02 20h30.28.813118 +0530,
84,5,1.0,102.53092275000381,,102.52422866700363,102.53092275000381,103.02110399999947,103.02110399999947,103.02110399999947,103.30754075000004,104.07297412500338,left,-1.0,0,0,1.0375517079955898,1,001,2025-09-02_20h30.21.564,adaptive_staircase,,2025.1.1,None,2025-09-02 20h30.28.813118 +0530,
85,5,6.0,104.08009483299975,,104.07339133300411,104.08009483299975,104.57121362500038,104.57121362500038,104.57121362500038,104.85765583300235,105.1228460420025,right,6.0,1,1,0.5424828750037705,1,001,2025-09-02_20h30.21.564,adaptive_staircase,,2025.1.1,None,2025-09-02 20h30.28.813118 +0530,
86,5,6.0,105.12937133300147,,105.12315650000528,105.12937133300147,105.62116191699897,105.62116191699897,105.62116191699897,105.90753595800197,106.24013629199908,right,6.0,1,1,0.6085472499980824,1,001,2025-09-02_20h30.21.564,adaptive_staircase,,2025.1.1,None,2025-09-02 20h30.28.813118 +0530,
87,5,6.0,106.246638042001,,106.24045312499948,106.246638042001,106.73795025000436,106.73795025000436,106.73795025000436,107.02430791700317,107.3591623329994,left,-6.0,1,1,0.6186048339950503,1,001,2025-09-02_20h30.21.564,adaptive_staircase,,2025.1.1,None,2025-09-02 20h30.28.813118 +0530,
88,5,1.0,107.37124491700524,,107.359428708005,107.37124491700524,107.8592728750009,107.8592728750009,107.8592728750009,108.15776512500452,108.7064442080009,left,-1.0,1,1,0.8393902919997345,1,001,2025-09-02_20h30.21.564,adaptive_staircase,,2025.1.1,None,2025-09-02 20h30.28.813118 +0530,
89,5,1.0,108.71313429200382,,108.70678200000111,108.71313429200382,109.20450250000431,109.20450250000431,109.20450250000431,109.49113495799975,110.02602716700494,left,-1.0,1,1,0.8180633329975535,1,001,2025-09-02_20h30.21.564,adaptive_staircase,,2025.1.1,None,2025-09-02 20h30.28.813118 +0530,
90,5,1.0,110.03780670800188,,110.02628887500032,110.03780670800188,110.52563725000073,110.52563725000073,110.52563725000073,110.82444200000464,111.48953120800434,left,-1.0,1,1,0.9509264580046874,1,001,2025-09-02_20h30.21.564,adaptive_staircase,,2025.1.1,None,2025-09-02 20h30.28.813118 +0530,
91,5,1.0,111.49638958300056,,111.48989941699983,111.49638958300056,111.98785195800156,111.98785195800156,111.98785195800156,112.27508304200455,112.80680583300273,right,1.0,1,1,0.8166974159976235,1,001,2025-09-02_20h30.21.564,adaptive_staircase,,2025.1.1,None,2025-09-02 20h30.28.813118 +0530,
92,5,1.0,112.81145025000296,,112.80722287500248,112.81145025000296,113.30436512500455,113.30436512500455,113.30436512500455,113.59143483300431,114.07366466700478,right,1.0,1,1,0.7550831670014304,1,001,2025-09-02_20h30.21.564,adaptive_staircase,,2025.1.1,None,2025-09-02 20h30.28.813118 +0530,
93,5,1.0,114.08110491700063,,114.07431054200424,114.08110491700063,114.57110504199954,114.57110504199954,114.57110504199954,114.85786958300014,115.30689754200284,left,-1.0,0,0,0.7244282499959809,1,001,2025-09-02_20h30.21.564,adaptive_staircase,,2025.1.1,None,2025-09-02 20h30.28.813118 +0530,
94,5,6.0,115.3140732920001,,115.30738112499967,115.3140732920001,115.80447858299885,115.80447858299885,115.80447858299885,116.09096779199899,116.68988995800464,right,6.0,0,0,0.8729118749979534,1,001,2025-09-02_20h30.21.564,adaptive_staircase,,2025.1.1,None,2025-09-02 20h30.28.813118 +0530,
95,5,11.0,116.6972067500028,,116.69049879199883,116.6972067500028,117.18789729200216,117.18789729200216,117.18789729200216,117.47452825000073,117.93929875000322,right,11.0,1,1,0.7493769159991643,1,001,2025-09-02_20h30.21.564,adaptive_staircase,,2025.1.1,None,2025-09-02 20h30.28.813118 +0530,
96,5,11.0,117.94345116700424,,117.93960233300459,117.94345116700424,118.43796291699982,118.43796291699982,118.43796291699982,118.72414912500244,119.25686595799925,right,11.0,1,1,0.8133745829982217,1,001,2025-09-02_20h30.21.564,adaptive_staircase,,2025.1.1,None,2025-09-02 20h30.28.813118 +0530,
97,5,11.0,119.2616832499989,,119.25746391700523,119.2616832499989,119.75464266700146,119.75464266700146,119.75464266700146,120.04088366700307,120.44219516700105,right,11.0,1,1,0.6835827500035521,1,001,2025-09-02_20h30.21.564,adaptive_staircase,,2025.1.1,None,2025-09-02 20h30.28.813118 +0530,
98,5,6.0,120.45455145800224,,120.44247787500353,120.45455145800224,120.93791887500265,120.93791887500265,120.93791887500265,121.22503695799969,121.54012441699888,left,-6.0,1,1,0.5964334169984795,1,001,2025-09-02_20h30.21.564,adaptive_staircase,,2025.1.1,None,2025-09-02 20h30.28.813118 +0530,
99,5,6.0,121.54479554200225,,121.54071487500187,121.54479554200225,122.03768754200428,122.03768754200428,122.03768754200428,122.32507258300029,122.80597966700589,right,6.0,1,1,0.7626892089974717,1,001,2025-09-02_20h30.21.564,adaptive_staircase,,2025.1.1,None,2025-09-02 20h30.28.813118 +0530,
