delay,freq,condition,thisN,thisTrialN,thisRepN,key_resp.keys,key_resp.rt,key_resp.duration,textbox.text,button.numClicks,button.timesOn,button.timesOff,trials.thisRepN,trials.thisTrialN,trials.thisN,trials.thisIndex,thisRow.t,notes,trial.started,polygon.started,polygon_2.started,key_resp.started,polygon.stopped,trial.stopped,trials.key_resp.keys,trials.key_resp.rt,trials.key_resp.duration,beep.started,sound_1.started,sound_1.stopped,beep.stopped,response.started,text.started,textbox.started,button.started,response.stopped,trials.textbox.text,trials.button.numClicks,trials.button.timesOn,trials.button.timesOff,participant,session,date,expName,expVersion,psychopyVersion,frameRate,expStart,
0.1,1000.0,exp,0,0,0,space,0.5424723330070265,None,400,1,[8.96747337502893],[8.967476207995787],0,0,0,6,0.019486999954096973,,0.01561829197453335,0.019486999954096973,0.9939331249915995,0.9939331249915995,1.0073876669630408,1.746090666973032,space,0.5424723330070265,None,1.7464578750077635,0.1064471669960767,0.40738358395174146,2.158007624966558,2.160829374974128,2.1848531249561347,2.1848531249561347,2.1848531249561347,11.152483334008139,400,1,[8.96747337502893],[8.967476207995787],1,001,2025-11-11_18h23.04.141,Tutorial 7 | Intentional Binding Task,,2025.1.1,None,2025-11-11 18h23.12.441327 +0530,
0.4,1000.0,exp,1,1,0,space,0.5787264159880579,None,400,1,[4.724370290990919],[4.724373457953334],0,1,1,10,11.155126917001326,,11.152682541985996,11.155126917001326,12.141023500007577,12.141023500007577,12.15353316697292,12.722220249997918,space,0.5787264159880579,None,12.724271416955162,0.401685000048019,0.7010860420414247,13.427780416968744,13.429010166961234,13.444459249963984,13.444459249963984,13.444459249963984,18.168994417006616,400,1,[4.724370290990919],[4.724373457953334],1,001,2025-11-11_18h23.04.141,Tutorial 7 | Intentional Binding Task,,2025.1.1,None,2025-11-11 18h23.12.441327 +0530,
0.7,400.0,unexp,2,2,0,space,0.6267935840296559,None,700,1,[2.1802131250151433],[2.180215791973751],0,2,2,2,18.171408166992478,,18.16913754196139,18.171408166992478,19.157725333992857,19.157725333992857,19.170025541970972,19.78877979196841,space,0.6267935840296559,None,19.790757333976217,0.701819916954264,1.001777041994501,20.79510724998545,20.796309249999467,20.811603333975654,20.811603333975654,20.811603333975654,22.992014791991096,700,1,[2.1802131250151433],[2.180215791973751],1,001,2025-11-11_18h23.04.141,Tutorial 7 | Intentional Binding Task,,2025.1.1,None,2025-11-11 18h23.12.441327 +0530,
0.1,1000.0,exp,3,3,0,space,0.38403516699327156,None,100,1,[2.0892652079928666],[2.0892676659859717],0,3,3,3,23.002036583959125,,22.992142834002152,23.002036583959125,23.99086704198271,23.99086704198271,23.99086704198271,24.38882129197009,space,0.38403516699327156,None,24.39055966696469,0.10165929095819592,0.40105245797894895,24.794466874969658,24.79627987497952,24.812880249985028,24.812880249985028,24.812880249985028,26.902314624981955,100,1,[2.0892652079928666],[2.0892676659859717],1,001,2025-11-11_18h23.04.141,Tutorial 7 | Intentional Binding Task,,2025.1.1,None,2025-11-11 18h23.12.441327 +0530,
0.1,400.0,unexp,4,4,0,space,0.8615836669923738,None,500,1,[2.0253927090088837],[2.0253950839978643],0,4,4,0,26.905161208997015,,26.902444167004433,26.905161208997015,27.890914624964353,27.890914624964353,27.903309041983448,28.755309792002663,space,0.8615836669923738,None,28.75732816697564,0.10078962502302602,0.401947625039611,29.160661667003296,29.16169258399168,29.176712749991566,29.176712749991566,29.176712749991566,31.20226695900783,500,1,[2.0253927090088837],[2.0253950839978643],1,001,2025-11-11_18h23.04.141,Tutorial 7 | Intentional Binding Task,,2025.1.1,None,2025-11-11 18h23.12.441327 +0530,
0.4,400.0,unexp,5,5,0,space,0.3829192499979399,None,400,1,[1.0980714589823037],[1.09807395900134],0,5,5,1,31.2053153339657,,31.20239816699177,31.2053153339657,32.19147866696585,32.19147866696585,32.203522541967686,32.58829695900204,space,0.3829192499979399,None,32.58965183398686,0.40163779101567343,0.7019047500216402,33.29439595900476,33.29540058400016,33.31072216696339,33.31072216696339,33.31072216696339,34.408960542001296,400,1,[1.0980714589823037],[1.09807395900134],1,001,2025-11-11_18h23.04.141,Tutorial 7 | Intentional Binding Task,,2025.1.1,None,2025-11-11 18h23.12.441327 +0530,
0.7,1000.0,exp,6,6,0,space,0.4597589580225758,None,100,1,[3.1626593749970198],[3.162661917041987],0,6,6,11,34.41860362497391,,34.40909158397699,34.41860362497391,35.406614666979294,35.406614666979294,35.406614666979294,35.8717498339829,space,0.4597589580225758,None,35.873633834009524,0.7019058750011027,1.0019217919907533,36.87828779197298,36.87955712497933,36.89568983396748,36.89568983396748,36.89568983396748,40.05851724999957,100,1,[3.1626593749970198],[3.162661917041987],1,001,2025-11-11_18h23.04.141,Tutorial 7 | Intentional Binding Task,,2025.1.1,None,2025-11-11 18h23.12.441327 +0530,
0.4,1000.0,exp,7,7,0,space,0.6833049159613438,None,700,1,[2.1825242919730954],[2.182526708988007],0,7,7,7,40.06860333395889,,40.058657334011514,40.06860333395889,41.05686654197052,41.05686654197052,41.05686654197052,41.742010416986886,space,0.6833049159613438,None,41.74327083397657,0.4111037499969825,0.7112343339831568,42.45764149999013,42.4590455419966,42.47603587497724,42.47603587497724,42.47603587497724,44.658723458996974,700,1,[2.1825242919730954],[2.182526708988007],1,001,2025-11-11_18h23.04.141,Tutorial 7 | Intentional Binding Task,,2025.1.1,None,2025-11-11 18h23.12.441327 +0530,
0.7,1000.0,exp,8,8,0,space,0.642220499983523,None,300,1,[2.09488454204984],[2.0948873330489732],0,8,8,5,44.66862295899773,,44.65884916699724,44.66862295899773,45.65779129200382,45.65779129200382,45.65779129200382,46.30521224997938,space,0.642220499983523,None,46.306832125002984,0.7019361249986105,1.0024269170244224,47.31189774995437,47.313281999959145,47.32820979197277,47.32820979197277,47.32820979197277,49.423275667009875,300,1,[2.09488454204984],[2.0948873330489732],1,001,2025-11-11_18h23.04.141,Tutorial 7 | Intentional Binding Task,,2025.1.1,None,2025-11-11 18h23.12.441327 +0530,
0.1,1000.0,exp,9,9,0,space,0.4998691670480184,None,400,1,[1.645091834012419],[1.6450945420074277],0,9,9,9,49.435421374975704,,49.423407583963126,49.435421374975704,50.419967749970965,50.419967749970965,50.423773416958284,50.922123083961196,space,0.4998691670480184,None,50.92353904200718,0.10105829098029062,0.40134129096986726,51.32773670897586,51.328734583978076,51.344559416989796,51.344559416989796,51.344559416989796,52.989821708993986,400,1,[1.645091834012419],[1.6450945420074277],1,001,2025-11-11_18h23.04.141,Tutorial 7 | Intentional Binding Task,,2025.1.1,None,2025-11-11 18h23.12.441327 +0530,
0.4,1000.0,exp,10,10,0,space,0.44743083301000297,None,300,1,[1.797429666039534],[1.7974322910304181],0,10,10,4,53.00209083396476,,52.989945416979026,53.00209083396476,53.98671520897187,53.98671520897187,53.991165874991566,54.43828920897795,space,0.44743083301000297,None,54.43963345896918,0.4024349160026759,0.702021082979627,55.14488249999704,55.14611487498041,55.16107974998886,55.16107974998886,55.16107974998886,56.95871070900466,300,1,[1.797429666039534],[1.7974322910304181],1,001,2025-11-11_18h23.04.141,Tutorial 7 | Intentional Binding Task,,2025.1.1,None,2025-11-11 18h23.12.441327 +0530,
0.7,1000.0,exp,11,11,0,space,0.5808960410067812,None,200,1,[1.1633811249630526],[1.1633837079862133],0,11,11,8,56.96860379196005,,56.95883620897075,56.96860379196005,57.95786337496247,57.95786337496247,57.95786337496247,58.541840541991405,space,0.5808960410067812,None,58.5430596669903,0.7113060840056278,1.0114630000316538,59.55799008399481,59.559660625003744,59.57613479200518,59.57613479200518,59.57613479200518,60.73969683400355,200,1,[1.1633811249630526],[1.1633837079862133],1,001,2025-11-11_18h23.04.141,Tutorial 7 | Intentional Binding Task,,2025.1.1,None,2025-11-11 18h23.12.441327 +0530,
0.7,1000.0,exp,12,0,1,space,0.39389395801117644,None,100,1,[2.447460792027414],[2.447463750024326],1,0,12,8,60.751951374986675,,60.73983233398758,60.751951374986675,61.73673720896477,61.73673720896477,61.74125612498028,62.138060999976005,space,0.39389395801117644,None,62.1392092499882,0.7016155419987626,1.0017918340163305,63.14423708396498,63.14522437501,63.15965699998196,63.15965699998196,63.15965699998196,65.60729208396515,100,1,[2.447460792027414],[2.447463750024326],1,001,2025-11-11_18h23.04.141,Tutorial 7 | Intentional Binding Task,,2025.1.1,None,2025-11-11 18h23.12.441327 +0530,
0.4,1000.0,exp,13,1,1,space,0.27022420801222324,None,500,1,[1.3971265830332413],[1.397129249991849],1,1,13,7,65.6185676669702,,65.60742445895448,65.6185676669702,66.60348983400036,66.60348983400036,66.60795124998549,66.8750408749911,space,0.27022420801222324,None,66.87632137496257,0.41158645797986537,0.7115741249872372,67.591341249994,67.59312758396845,67.60908033396117,67.60908033396117,67.60908033396117,69.00638258398976,500,1,[1.3971265830332413],[1.397129249991849],1,001,2025-11-11_18h23.04.141,Tutorial 7 | Intentional Binding Task,,2025.1.1,None,2025-11-11 18h23.12.441327 +0530,
0.7,1000.0,exp,14,2,1,space,0.2852962919860147,None,400,1,[1.3133405419648625],[1.3133434579940513],1,2,14,11,69.01875970896799,,69.00651591696078,69.01875970896799,70.00325491698459,70.00325491698459,70.00711874995613,70.29282587498892,space,0.2852962919860147,None,70.29402475000825,0.7104077080148272,1.0104639999917708,71.30780962499557,71.30948150000768,71.32619520899607,71.32619520899607,71.32619520899607,72.63971554196905,400,1,[1.3133405419648625],[1.3133434579940513],1,001,2025-11-11_18h23.04.141,Tutorial 7 | Intentional Binding Task,,2025.1.1,None,2025-11-11 18h23.12.441327 +0530,
0.1,1000.0,exp,15,3,1,space,0.40083995898021385,None,200,1,[2.3765728329890408],[2.3765768330194987],1,3,15,3,72.65208233398153,,72.6398469999549,72.65208233398153,73.63660475000506,73.63660475000506,73.6412989589735,74.0423384589958,space,0.40083995898021385,None,74.04351012496045,0.1107511249720119,0.4109747079783119,74.4579722089693,74.45968116697622,74.47558316698996,74.47558316698996,74.47558316698996,76.8523301249952,200,1,[2.3765728329890408],[2.3765768330194987],1,001,2025-11-11_18h23.04.141,Tutorial 7 | Intentional Binding Task,,2025.1.1,None,2025-11-11 18h23.12.441327 +0530,
0.1,1000.0,exp,16,4,1,space,0.2651033329893835,None,500,1,[1.583298375015147],[1.5833009170019068],1,4,16,6,76.85486566700274,,76.85245299997041,76.85486566700274,77.84126879199175,77.84126879199175,77.85331054200651,78.10885745898122,space,0.2651033329893835,None,78.11004616698483,0.11088291701162234,0.41108525003073737,78.52431570895715,78.5261226670118,78.54177654196974,78.54177654196974,78.54177654196974,80.12527737498749,500,1,[1.583298375015147],[1.5833009170019068],1,001,2025-11-11_18h23.04.141,Tutorial 7 | Intentional Binding Task,,2025.1.1,None,2025-11-11 18h23.12.441327 +0530,
0.7,1000.0,exp,17,5,1,space,0.4750513330218382,None,700 ,1,[1.4158546670223586],[1.4158571250154637],1,5,17,5,80.13516283396166,,80.12540395895485,80.13516283396166,81.12432408396853,81.12432408396853,81.12432408396853,81.60535229201196,space,0.4750513330218382,None,81.60682970896596,0.7018583750468679,1.0019213340128772,82.61145091697108,82.61272395896958,82.62667683395557,82.62667683395557,82.62667683395557,84.04270791698946,700 ,1,[1.4158546670223586],[1.4158571250154637],1,001,2025-11-11_18h23.04.141,Tutorial 7 | Intentional Binding Task,,2025.1.1,None,2025-11-11 18h23.12.441327 +0530,
0.4,1000.0,exp,18,6,1,space,0.6216032080119476,None,200,1,[1.0239595409948379],[1.0239627080154605],1,6,18,10,84.05206766695483,,84.0428282499779,84.05206766695483,85.04056033398956,85.04056033398956,85.04056033398956,85.67214691697154,space,0.6216032080119476,None,85.67337033397052,0.4014202499529347,0.7016313329804689,86.37820799998008,86.3793855420081,86.39488420897396,86.39488420897396,86.39488420897396,87.41901841695653,200,1,[1.0239595409948379],[1.0239627080154605],1,001,2025-11-11_18h23.04.141,Tutorial 7 | Intentional Binding Task,,2025.1.1,None,2025-11-11 18h23.12.441327 +0530,
0.1,400.0,unexp,19,7,1,space,0.5917618749663234,None,700,1,[2.1639167080284096],[2.1639200419886038],1,7,19,0,87.42140995897353,,87.41914374998305,87.42140995897353,88.40789949998725,88.40789949998725,88.41998958395561,89.00492887495784,space,0.5917618749663234,None,89.00646633398719,0.10199262498645112,0.4023172919987701,89.41157516697422,89.41287183400709,89.42779120896012,89.42779120896012,89.42779120896012,91.59187679196475,700,1,[2.1639167080284096],[2.1639200419886038],1,001,2025-11-11_18h23.04.141,Tutorial 7 | Intentional Binding Task,,2025.1.1,None,2025-11-11 18h23.12.441327 +0530,
0.4,400.0,unexp,20,8,1,space,0.24780025001382455,None,100,1,[1.0144038340076804],[1.0144064589985646],1,8,20,1,91.60192687500967,,91.59199716697913,91.60192687500967,92.58661916700657,92.58661916700657,92.59096591698471,92.83809054200538,space,0.24780025001382455,None,92.83926341700135,0.40237454103771597,0.7017222910071723,93.54420745896641,93.54542325000511,93.5620216249954,93.5620216249954,93.5620216249954,94.57660483400105,100,1,[1.0144038340076804],[1.0144064589985646],1,001,2025-11-11_18h23.04.141,Tutorial 7 | Intentional Binding Task,,2025.1.1,None,2025-11-11 18h23.12.441327 +0530,
0.4,1000.0,exp,21,9,1,space,0.3003746250178665,None,400,1,[1.2079792919685133],[1.2079827089910395],1,9,21,4,94.5853447499685,,94.57673224998871,94.5853447499685,95.57439991697902,95.57439991697902,95.57439991697902,95.88876949995756,space,0.3003746250178665,None,95.8905304169748,0.4006917080259882,0.7014355410356075,96.59401666698977,96.59527404198889,96.61081362498226,96.61081362498226,96.61081362498226,97.818967374973,400,1,[1.2079792919685133],[1.2079827089910395],1,001,2025-11-11_18h23.04.141,Tutorial 7 | Intentional Binding Task,,2025.1.1,None,2025-11-11 18h23.12.441327 +0530,
0.1,1000.0,exp,22,10,1,space,0.5434894159552641,None,100,1,[3.0568412090069614],[3.056843750004191],1,10,22,9,97.82107862498378,,97.81909324997105,97.82107862498378,98.80841795896413,98.80841795896413,98.81996950000757,99.35550445900299,space,0.5434894159552641,None,99.35674987500533,0.10105091700097546,0.4016741249943152,99.76103237498319,99.76256004197057,99.77860374999,99.77860374999,99.77860374999,102.83561208395986,100,1,[3.0568412090069614],[3.056843750004191],1,001,2025-11-11_18h23.04.141,Tutorial 7 | Intentional Binding Task,,2025.1.1,None,2025-11-11 18h23.12.441327 +0530,
0.7,400.0,unexp,23,11,1,space,0.29576720896875486,None,400,1,[2.448005332960747],[2.4480087079573423],1,11,23,2,102.83788224996533,,102.83574229199439,102.83788224996533,103.82401458401,103.82401458401,103.83656500000507,104.12210325000342,space,0.29576720896875486,None,104.12341854197439,0.7003316670306958,1.0016606249846518,105.12697970896261,105.12854312499985,105.14460587495705,105.14460587495705,105.14460587495705,107.59280620899517,400,1,[2.448005332960747],[2.4480087079573423],1,001,2025-11-11_18h23.04.141,Tutorial 7 | Intentional Binding Task,,2025.1.1,None,2025-11-11 18h23.12.441327 +0530,
0.7,1000.0,exp,24,0,2,space,0.5035843750229105,None,600,1,[1.0059914999874309],[1.006000832945574],2,0,24,8,107.60180483397562,,107.59293533395976,107.60180483397562,108.5900700839702,108.5900700839702,108.5900700839702,109.10533870896325,space,0.5035843750229105,None,109.10659604199464,0.7015427919686772,1.0009004169842228,110.1109667919809,110.11291424999945,110.1301817089552,110.1301817089552,110.1301817089552,111.13677062495844,600,1,[1.0059914999874309],[1.006000832945574],1,001,2025-11-11_18h23.04.141,Tutorial 7 | Intentional Binding Task,,2025.1.1,None,2025-11-11 18h23.12.441327 +0530,
0.4,1000.0,exp,25,1,2,space,0.5745658329688013,None,900 ,1,[2.810449291020632],[2.8104526250390336],2,1,25,10,111.13908412499586,,111.13708183396375,111.13908412499586,112.12594245898072,112.12594245898072,112.1364759170101,112.70540874998551,space,0.5745658329688013,None,112.70729533396661,0.40124179201666266,0.7011969999875873,113.41123649996007,113.41255679196911,113.42923758400138,113.42923758400138,113.42923758400138,116.23986533400603,900 ,1,[2.810449291020632],[2.8104526250390336],1,001,2025-11-11_18h23.04.141,Tutorial 7 | Intentional Binding Task,,2025.1.1,None,2025-11-11 18h23.12.441327 +0530,
0.1,400.0,unexp,26,2,2,space,0.4869009589892812,None,400,1,[1.1671299579902552],[1.1671327909571119],2,2,26,0,116.25175887497608,,116.23999066697434,116.25175887497608,117.23645895899972,117.23645895899972,117.24054233398056,117.72473058395553,space,0.4869009589892812,None,117.72599012497813,0.11181470798328519,0.4116595829837024,118.14105116698192,118.14246549998643,118.1590113749844,118.1590113749844,118.1590113749844,119.32632054196438,400,1,[1.1671299579902552],[1.1671327909571119],1,001,2025-11-11_18h23.04.141,Tutorial 7 | Intentional Binding Task,,2025.1.1,None,2025-11-11 18h23.12.441327 +0530,
0.4,1000.0,exp,27,3,2,space,0.5258392090327106,None,400,1,[7.263716542045586],[7.263719458016567],2,3,27,4,119.3351205419749,,119.326455041999,119.3351205419749,120.32360808399972,120.32360808399972,120.32360808399972,120.85558500001207,space,0.5258392090327106,None,120.85713133396348,0.40114462503697723,0.701140875054989,121.56137133395532,121.56266895896988,121.57869175000815,121.57869175000815,121.57869175000815,128.84258995897835,400,1,[7.263716542045586],[7.263719458016567],1,001,2025-11-11_18h23.04.141,Tutorial 7 | Intentional Binding Task,,2025.1.1,None,2025-11-11 18h23.12.441327 +0530,
0.7,1000.0,exp,28,4,2,space,0.07761899998877198,None,400,1,[5.425305749988183],[5.425308624980971],2,4,28,5,128.8519156249822,,128.8427281669574,128.8519156249822,129.84177245898172,129.84177245898172,129.84177245898172,129.92146820900962,space,0.07761899998877198,None,129.92266599996947,0.7012152089737356,1.0018317499780096,130.92732954199892,130.92860462499084,130.9434369999799,130.9434369999799,130.9434369999799,136.36891762499,400,1,[5.425305749988183],[5.425308624980971],1,001,2025-11-11_18h23.04.141,Tutorial 7 | Intentional Binding Task,,2025.1.1,None,2025-11-11 18h23.12.441327 +0530,
0.4,400.0,unexp,29,5,2,space,0.3323940840200521,None,600,1,[1.7096922919736244],[1.709695334022399],2,5,29,1,136.372272958979,,136.369048249966,136.372272958979,137.3568351669819,137.3568351669819,137.36978929198813,137.69130670896266,space,0.3323940840200521,None,137.69249533396214,0.41169474995695055,0.7115973749896511,138.4073738749721,138.40883704199223,138.42572016699705,138.42572016699705,138.42572016699705,140.13559016695945,600,1,[1.7096922919736244],[1.709695334022399],1,001,2025-11-11_18h23.04.141,Tutorial 7 | Intentional Binding Task,,2025.1.1,None,2025-11-11 18h23.12.441327 +0530,
0.4,1000.0,exp,30,6,2,space,0.5209064169903286,None,700,1,[2.512421874969732],[2.512424540997017],2,6,30,7,140.13848429196514,,140.13571933400817,140.13848429196514,141.12471649999497,141.12471649999497,141.1365661249729,141.65447079198202,space,0.5209064169903286,None,141.65575824998086,0.40120974997989833,0.7022883329773322,142.36028054199414,142.36152749997564,142.37701416696655,142.37701416696655,142.37701416696655,144.88963474996854,700,1,[2.512421874969732],[2.512424540997017],1,001,2025-11-11_18h23.04.141,Tutorial 7 | Intentional Binding Task,,2025.1.1,None,2025-11-11 18h23.12.441327 +0530,
0.1,1000.0,exp,31,7,2,space,0.15883154096081853,None,100,1,[1.523623791988939],[1.5236266669817269],2,7,31,9,144.9022194169811,,144.88976049999474,144.9022194169811,145.88633533398388,145.88633533398388,145.89107183396118,146.05528479197528,space,0.15883154096081853,None,146.0566990840016,0.10192429198650643,0.40171912498772144,146.4616313339793,146.462877791957,146.47822383395396,146.47822383395396,146.47822383395396,148.00204641697928,100,1,[1.523623791988939],[1.5236266669817269],1,001,2025-11-11_18h23.04.141,Tutorial 7 | Intentional Binding Task,,2025.1.1,None,2025-11-11 18h23.12.441327 +0530,
0.1,1000.0,exp,32,8,2,space,0.3015606669941917,None,400,1,[1.2589695419883355],[1.2589725839789025],2,8,32,6,148.00471791700693,,148.0021678750054,148.00471791700693,148.99045616696822,148.99045616696822,149.00320791697595,149.3034538750071,space,0.3015606669941917,None,149.3052236670046,0.09962300001643598,0.39973762503359467,149.70776650001062,149.70954991696635,149.7261394590023,149.7261394590023,149.7261394590023,150.9852864999557,400,1,[1.2589695419883355],[1.2589725839789025],1,001,2025-11-11_18h23.04.141,Tutorial 7 | Intentional Binding Task,,2025.1.1,None,2025-11-11 18h23.12.441327 +0530,
0.7,1000.0,exp,33,9,2,space,0.48218958399957046,None,400,1,[2.5850680409930646],[2.5850709580117837],2,9,33,11,150.98822470899904,,150.98540687497007,150.98822470899904,151.97367470897734,151.97367470897734,151.98646924999775,152.45844579197,space,0.48218958399957046,None,152.45965454197722,0.7113328750128858,1.0112287499941885,153.47375025000656,153.47523808397818,153.49084683397086,153.49084683397086,153.49084683397086,156.07610137498705,400,1,[2.5850680409930646],[2.5850709580117837],1,001,2025-11-11_18h23.04.141,Tutorial 7 | Intentional Binding Task,,2025.1.1,None,2025-11-11 18h23.12.441327 +0530,
0.1,1000.0,exp,34,10,2,space,1.9210764580057003,None,100,1,[3.42425279103918],[3.424255666031968],2,10,34,3,156.08501066698227,,156.07622712495504,156.08501066698227,157.07378633396002,157.07378633396002,157.07378633396002,159.0054172090022,space,1.9210764580057003,None,159.0073346249992,0.10103625000920147,0.4013992919935845,159.41112208395498,159.41226104198722,159.42772554198746,159.42772554198746,159.42772554198746,162.85215824999614,100,1,[3.42425279103918],[3.424255666031968],1,001,2025-11-11_18h23.04.141,Tutorial 7 | Intentional Binding Task,,2025.1.1,None,2025-11-11 18h23.12.441327 +0530,
0.7,400.0,unexp,35,11,2,space,0.42423649999545887,None,700,1,[2.8298900419613346],[2.829893041984178],2,11,35,2,162.85525233397493,,162.85228554200148,162.85525233397493,163.8405475000036,163.8405475000036,163.8530268339673,164.2720848749741,space,0.42423649999545887,None,164.27378945896635,0.7019668749999255,1.0014895829954185,165.2780982920085,165.27920216700295,165.2952047919971,165.2952047919971,165.2952047919971,168.12527695897734,700,1,[2.8298900419613346],[2.829893041984178],1,001,2025-11-11_18h23.04.141,Tutorial 7 | Intentional Binding Task,,2025.1.1,None,2025-11-11 18h23.12.441327 +0530,
0.4,1000.0,exp,36,0,3,space,0.4994033749680966,None,400,1,[1.0144016250269488],[1.014404583023861],3,0,36,7,168.13501520897262,,168.1254050419666,168.13501520897262,169.12412362499163,169.12412362499163,169.12412362499163,169.62505404197145,space,0.4994033749680966,None,169.62624333397252,0.41139370802557096,0.7114396250108257,170.34076333401026,170.3425066669588,170.35833087499486,170.35833087499486,170.35833087499486,171.37291299999924,400,1,[1.0144016250269488],[1.014404583023861],1,001,2025-11-11_18h23.04.141,Tutorial 7 | Intentional Binding Task,,2025.1.1,None,2025-11-11 18h23.12.441327 +0530,
0.7,1000.0,exp,37,1,3,space,1.445718041039072,None,500,1,[2.4617878749850206],[2.461791292007547],3,1,37,5,171.38512504199753,,171.37304062501062,171.38512504199753,172.36977337498683,172.36977337498683,172.37485358398408,173.82216149999294,space,1.445718041039072,None,173.8234997089603,0.7011735829873942,1.0016854170244187,174.82794591697166,174.82953833398642,174.84646570897894,174.84646570897894,174.84646570897894,177.30844012496527,500,1,[2.4617878749850206],[2.461791292007547],1,001,2025-11-11_18h23.04.141,Tutorial 7 | Intentional Binding Task,,2025.1.1,None,2025-11-11 18h23.12.441327 +0530,
0.4,400.0,unexp,38,2,3,space,0.7518320420058444,None,700,1,[2.0117692080093548],[2.0117724160081707],3,2,38,1,177.31832516699797,,177.30856720899465,177.31832516699797,178.30747262499062,178.30747262499062,178.30747262499062,179.0718820419861,space,0.7518320420058444,None,179.07371970900567,0.4015859159990214,0.7016732500051148,179.77811466698768,179.77932099997997,179.7943873750046,179.7943873750046,179.7943873750046,181.8063431669725,700,1,[2.0117692080093548],[2.0117724160081707],1,001,2025-11-11_18h23.04.141,Tutorial 7 | Intentional Binding Task,,2025.1.1,None,2025-11-11 18h23.12.441327 +0530,
0.7,1000.0,exp,39,3,3,space,0.37939125002594665,None,300,1,[1.3107142910012044],[1.310717249987647],3,3,39,11,181.81830412498675,,181.80651712499093,181.81830412498675,182.80290554196108,182.80290554196108,182.80724925000686,183.18831820896594,space,0.37939125002594665,None,183.18971000000602,0.7020844999933615,1.001981750014238,184.19492666696897,184.19607904198347,184.2119822090026,184.2119822090026,184.2119822090026,185.52289562497754,300,1,[1.3107142910012044],[1.310717249987647],1,001,2025-11-11_18h23.04.141,Tutorial 7 | Intentional Binding Task,,2025.1.1,None,2025-11-11 18h23.12.441327 +0530,
0.7,1000.0,exp,40,4,3,space,0.4844396670232527,None,600 ,1,[1.6981755000306293],[1.6981789580313489],3,4,40,8,185.53494658396812,,185.52301712497137,185.53494658396812,186.5196608749684,186.5196608749684,186.5238766669645,187.00744712498272,space,0.4844396670232527,None,187.0086547919782,0.7122168749920093,1.0120861670002341,188.02422629197827,188.026008041983,188.0412622920121,188.0412622920121,188.0412622920121,189.739625874965,600 ,1,[1.6981755000306293],[1.6981789580313489],1,001,2025-11-11_18h23.04.141,Tutorial 7 | Intentional Binding Task,,2025.1.1,None,2025-11-11 18h23.12.441327 +0530,
0.4,1000.0,exp,41,5,3,space,0.4946235829847865,None,800,1,[1.0234712910023518],[1.023474708024878],3,5,41,4,189.75177141698077,,189.73976162500912,189.75177141698077,190.73640075000003,190.73640075000003,190.74033533397596,191.2378819169826,space,0.4946235829847865,None,191.23948208399815,0.4018472909810953,0.7019180830102414,191.94412087497767,191.9454150419915,191.9616153339739,191.9616153339739,191.9616153339739,192.98528004199034,800,1,[1.0234712910023518],[1.023474708024878],1,001,2025-11-11_18h23.04.141,Tutorial 7 | Intentional Binding Task,,2025.1.1,None,2025-11-11 18h23.12.441327 +0530,
0.4,1000.0,exp,42,6,3,space,0.2987485419725999,None,100,1,[1.0486140419961885],[1.048617333988659],3,6,42,10,192.98776604200248,,192.98541183397174,192.98776604200248,193.97417879197747,193.97417879197747,193.98635654198006,194.27422562497668,space,0.2987485419725999,None,194.27545537496917,0.39902474998962134,0.6990814169985242,194.9777917090105,194.9802715840051,194.9941979169962,194.9941979169962,194.9941979169962,196.04299295897363,100,1,[1.0486140419961885],[1.048617333988659],1,001,2025-11-11_18h23.04.141,Tutorial 7 | Intentional Binding Task,,2025.1.1,None,2025-11-11 18h23.12.441327 +0530,
0.1,1000.0,exp,43,7,3,space,0.2963765420136042,None,200,1,[0.9667312910314649],[0.9667343749897555],3,7,43,3,196.05190533399582,,196.04311441699974,196.05190533399582,197.04076854197774,197.04076854197774,197.04076854197774,197.34152054198785,space,0.2963765420136042,None,197.34266983397538,0.11140491702826694,0.4115835830452852,197.7575070419698,197.75926787499338,197.77499133400852,197.77499133400852,197.77499133400852,198.74191716697533,200,1,[0.9667312910314649],[0.9667343749897555],1,001,2025-11-11_18h23.04.141,Tutorial 7 | Intentional Binding Task,,2025.1.1,None,2025-11-11 18h23.12.441327 +0530,
0.1,400.0,unexp,44,8,3,space,0.2611711249919608,None,400,1,[3.2074943750048988],[3.207496791961603],3,8,44,0,198.7516744589666,,198.74204395897686,198.7516744589666,199.74075654195622,199.74075654195622,199.74075654195622,200.00453499995638,space,0.2611711249919608,None,200.00615758396452,0.1016394579783082,0.40217566600767896,200.41076358396094,200.41205049998825,200.42777041700901,200.42777041700901,200.42777041700901,203.63543974998174,400,1,[3.2074943750048988],[3.207496791961603],1,001,2025-11-11_18h23.04.141,Tutorial 7 | Intentional Binding Task,,2025.1.1,None,2025-11-11 18h23.12.441327 +0530,
0.1,1000.0,exp,45,9,3,space,0.30797608400462195,None,500,1,[1.1312049590051174],[1.1312078750343062],3,9,45,6,203.64186229195911,,203.63557449996006,203.64186229195911,204.62383829196915,204.62383829196915,204.64072908397065,204.93846599996323,space,0.30797608400462195,None,204.94002350000665,0.10061691701412201,0.4014222089899704,205.3437381249969,205.34517212497303,205.36164358397946,205.36164358397946,205.36164358397946,206.49304245895473,500,1,[1.1312049590051174],[1.1312078750343062],1,001,2025-11-11_18h23.04.141,Tutorial 7 | Intentional Binding Task,,2025.1.1,None,2025-11-11 18h23.12.441327 +0530,
0.7,400.0,unexp,46,10,3,space,0.388403708988335,None,700 ,1,[1.5111368329962716],[1.5111397079890594],3,10,46,2,206.5015729169827,,206.49316916696262,206.5015729169827,207.49035383400042,207.49035383400042,207.49035383400042,207.88746512500802,space,0.388403708988335,None,207.888627874956,0.7020439589978196,1.0029644169844687,208.89421304198913,208.8955162089551,208.9115322919679,208.9115322919679,208.9115322919679,210.42285379196983,700 ,1,[1.5111368329962716],[1.5111397079890594],1,001,2025-11-11_18h23.04.141,Tutorial 7 | Intentional Binding Task,,2025.1.1,None,2025-11-11 18h23.12.441327 +0530,
0.1,1000.0,exp,47,11,3,space,13.288075125019532,None,900,1,[1.4282691669650376],[1.4282724999939092],3,11,47,9,210.43507941695862,,210.42297549999785,210.43507941695862,211.41958604200045,211.41958604200045,211.42293624999002,224.7219766670023,space,13.288075125019532,None,224.72328387497691,0.10104183299699798,0.40147795801749453,225.1275884169736,225.1288469589781,225.14442829199834,225.14442829199834,225.14442829199834,226.57288920896826,900,1,[1.4282691669650376],[1.4282724999939092],1,001,2025-11-11_18h23.04.141,Tutorial 7 | Intentional Binding Task,,2025.1.1,None,2025-11-11 18h23.12.441327 +0530,
0.1,1000.0,exp,48,0,4,space,0.344265749969054,None,300,1,[1.039315666013863],[1.039318832976278],4,0,48,3,226.58503795898287,,226.573021084012,226.58503795898287,227.5698235000018,227.5698235000018,227.573799374979,227.9223831249983,space,0.344265749969054,None,227.92374912498053,0.10133704100735486,0.4009427080163732,228.32791804196313,228.32921120896935,228.34570249996614,228.34570249996614,228.34570249996614,229.38519595901016,300,1,[1.039315666013863],[1.039318832976278],1,001,2025-11-11_18h23.04.141,Tutorial 7 | Intentional Binding Task,,2025.1.1,None,2025-11-11 18h23.12.441327 +0530,
0.4,1000.0,exp,49,1,4,space,0.26753995899343863,None,100,1,[2.0273205839912407],[2.027323584014084],4,1,49,4,229.38813316699816,,229.38531641697045,229.38813316699816,230.3749777089688,230.3749777089688,230.38618824997684,230.6557652920019,space,0.26753995899343863,None,230.65709320898168,0.4005758330458775,0.7008094160119072,231.36090683395742,231.36219979199814,231.3788997089723,231.3788997089723,231.3788997089723,233.40642108395696,100,1,[2.0273205839912407],[2.027323584014084],1,001,2025-11-11_18h23.04.141,Tutorial 7 | Intentional Binding Task,,2025.1.1,None,2025-11-11 18h23.12.441327 +0530,
0.7,1000.0,exp,50,2,4,space,0.3781029580277391,None,200 ,1,[1.1068774590385146],[1.1068812920129858],4,2,50,11,233.4181732920115,,233.40654229198117,233.4181732920115,234.40293883398408,234.40293883398408,234.40763820899883,234.78846462495858,space,0.3781029580277391,None,234.79019095900003,0.7009487500181422,1.0021833330392838,235.79507187497802,235.79645641701063,235.81143412500387,235.81143412500387,235.81143412500387,236.9185092090047,200 ,1,[1.1068774590385146],[1.1068812920129858],1,001,2025-11-11_18h23.04.141,Tutorial 7 | Intentional Binding Task,,2025.1.1,None,2025-11-11 18h23.12.441327 +0530,
0.7,400.0,unexp,51,3,4,space,1.6085510830162093,None,300,1,[1.4579545000451617],[1.4579672079999],4,3,51,2,236.92155591701157,,236.9186274589738,236.92155591701157,237.90745937498286,237.90745937498286,237.9194134999998,239.52180641697487,space,1.6085510830162093,None,239.52336095896317,0.7016509580425918,1.0016971250297502,240.5278907920001,240.52919629198732,240.54473233397584,240.54473233397584,240.54473233397584,242.00327295897296,300,1,[1.4579545000451617],[1.4579672079999],1,001,2025-11-11_18h23.04.141,Tutorial 7 | Intentional Binding Task,,2025.1.1,None,2025-11-11 18h23.12.441327 +0530,
0.4,1000.0,exp,52,4,4,space,0.7790967909968458,None,400,1,[0.7612076670047827],[0.7612107500317506],4,4,52,10,242.00540287495824,,242.00358612497803,242.00540287495824,242.99003229197115,242.99003229197115,243.00295399996685,243.77177545899758,space,0.7790967909968458,None,243.7736669589649,0.40096445800736547,0.7018617080175318,244.47878299996955,244.4854934589821,244.494665834005,244.494665834005,244.494665834005,245.25606554199476,400,1,[0.7612076670047827],[0.7612107500317506],1,001,2025-11-11_18h23.04.141,Tutorial 7 | Intentional Binding Task,,2025.1.1,None,2025-11-11 18h23.12.441327 +0530,
0.1,1000.0,exp,53,5,4,space,0.3377072919975035,None,500,1,[0.9250458339811303],[0.9250497919856571],4,5,53,6,245.26863441697787,,245.25619466695935,245.26863441697787,246.25293970899656,246.25293970899656,246.256922999979,246.60442091699224,space,0.3377072919975035,None,246.60600937495474,0.10117687500314787,0.40164687496144325,247.01005833398085,247.01133470900822,247.0266285839607,247.0266285839607,247.0266285839607,247.9518727089744,500,1,[0.9250458339811303],[0.9250497919856571],1,001,2025-11-11_18h23.04.141,Tutorial 7 | Intentional Binding Task,,2025.1.1,None,2025-11-11 18h23.12.441327 +0530,
0.4,400.0,unexp,54,6,4,space,0.4013424579752609,None,600,1,[0.8492142500472255],[0.8492173330159858],4,6,54,1,247.9548065419658,,247.95199624996167,247.9548065419658,248.94128570897738,248.94128570897738,248.95287908398313,249.3549898339552,space,0.4013424579752609,None,249.35623420897173,0.4007424170267768,0.70184691704344,250.06014070898527,250.06143041700125,250.07585979200667,250.07585979200667,250.07585979200667,250.9252607919625,600,1,[0.8492142500472255],[0.8492173330159858],1,001,2025-11-11_18h23.04.141,Tutorial 7 | Intentional Binding Task,,2025.1.1,None,2025-11-11 18h23.12.441327 +0530,
0.4,1000.0,exp,55,7,4,space,0.3524195000063628,None,700,1,[1.6797515419893898],[1.679753958946094],4,7,55,7,250.9347867500037,,250.92538762500044,250.9347867500037,251.92425070900936,251.92425070900936,251.92425070900936,252.28835324995453,space,0.3524195000063628,None,252.2903778339969,0.4015949169988744,0.7017418330069631,252.9945464169723,252.9958275000099,253.01156191696646,253.01156191696646,253.01156191696646,254.69154054200044,700,1,[1.6797515419893898],[1.679753958946094],1,001,2025-11-11_18h23.04.141,Tutorial 7 | Intentional Binding Task,,2025.1.1,None,2025-11-11 18h23.12.441327 +0530,
0.7,1000.0,exp,56,8,4,space,0.32852279202779755,None,800,1,[3.1655438750167377],[3.1655467920354567],4,8,56,8,254.7014241249999,,254.69165975000942,254.7014241249999,255.68600987497484,255.68600987497484,255.68981162499404,256.02142287499737,space,0.32852279202779755,None,256.0229039589758,0.7018980830325745,1.0145910000428557,257.03630149998935,257.0375966670108,257.0527403340093,257.0527403340093,257.0527403340093,260.218480083975,800,1,[3.1655438750167377],[3.1655467920354567],1,001,2025-11-11_18h23.04.141,Tutorial 7 | Intentional Binding Task,,2025.1.1,None,2025-11-11 18h23.12.441327 +0530,
0.1,1000.0,exp,57,9,4,space,0.4108237500186078,None,900,1,[2.7839202500181273],[2.7839245829964057],4,9,57,9,260.2213618750102,,260.21860116696917,260.2213618750102,261.2076525419834,261.2076525419834,261.2194114999729,261.620858417009,space,0.4108237500186078,None,261.6220163339749,0.10194004199001938,0.4106494580046274,262.0318008749746,262.03248204197735,262.04170833399985,262.04170833399985,262.04170833399985,264.8258366669761,900,1,[2.7839202500181273],[2.7839245829964057],1,001,2025-11-11_18h23.04.141,Tutorial 7 | Intentional Binding Task,,2025.1.1,None,2025-11-11 18h23.12.441327 +0530,
0.1,400.0,unexp,58,10,4,space,1.283697624981869,None,900,1,[1.413702625024598],[1.4137051660218276],4,10,58,0,264.8348862499697,,264.8259672920103,264.8348862499697,265.8235307499999,265.8235307499999,265.8235307499999,267.10830908396747,space,1.283697624981869,None,267.1095452089794,0.09918312495574355,0.39834316697670147,267.5110190839623,267.5123315419769,267.52758883399656,267.52758883399656,267.52758883399656,268.94148683396634,900,1,[1.413702625024598],[1.4137051660218276],1,001,2025-11-11_18h23.04.141,Tutorial 7 | Intentional Binding Task,,2025.1.1,None,2025-11-11 18h23.12.441327 +0530,
0.7,1000.0,exp,59,11,4,space,0.5130820840131491,None,800 ,1,[3.245423957996536],[3.2454271250171587],4,11,59,5,268.95139279199066,,268.94161358400015,268.95139279199066,269.9361369169783,269.9361369169783,269.94054145895643,270.45412174996454,space,0.5130820840131491,None,270.4553504170035,0.7018614169792272,1.0023869579890743,271.46052695898106,271.4618514999747,271.4772561249556,271.4772561249556,271.4772561249556,274.7228766249609,800 ,1,[3.245423957996536],[3.2454271250171587],1,001,2025-11-11_18h23.04.141,Tutorial 7 | Intentional Binding Task,,2025.1.1,None,2025-11-11 18h23.12.441327 +0530,
0.1,400.0,unexp,60,0,5,space,0.551859290979337,None,700,1,[3.8602117500267923],[3.860214749991428],5,0,60,0,274.73496016697027,,274.72299829201074,274.73496016697027,275.71936508396175,275.71936508396175,275.7239413749776,276.27405462495517,space,0.551859290979337,None,276.27520866697887,0.11201387504115701,0.4119767090305686,276.6904478339711,276.6923242919729,276.7080049169599,276.7080049169599,276.7080049169599,280.5684132089955,700,1,[3.8602117500267923],[3.860214749991428],1,001,2025-11-11_18h23.04.141,Tutorial 7 | Intentional Binding Task,,2025.1.1,None,2025-11-11 18h23.12.441327 +0530,
0.1,1000.0,exp,61,1,5,space,0.7287565000005998,None,600,1,[1.41026974999113],[1.4102733330219053],5,1,61,6,280.5713968749624,,280.56854158395436,280.5713968749624,281.558120208967,281.558120208967,281.56935920898104,282.2912859169883,space,0.7287565000005998,None,282.2924574589706,0.11157374997856095,0.4115297499811277,282.7072926249821,282.7091606250033,282.7246145000099,282.7246145000099,282.7246145000099,284.13507091696374,600,1,[1.41026974999113],[1.4102733330219053],1,001,2025-11-11_18h23.04.141,Tutorial 7 | Intentional Binding Task,,2025.1.1,None,2025-11-11 18h23.12.441327 +0530,
0.4,1000.0,exp,62,2,5,space,0.3070948750246316,None,500 ,1,[2.7415261669666506],[2.7415292499936186],5,2,62,7,284.13784358400153,,284.1351987500093,284.13784358400153,285.1248294590041,285.1248294590041,285.1360382499988,285.4382451249985,space,0.3070948750246316,None,285.43989729200257,0.4018117919913493,0.7015351669979282,286.14433495898265,286.14570329198614,286.1600398749579,286.1600398749579,286.1600398749579,288.90175679198,500 ,1,[2.7415261669666506],[2.7415292499936186],1,001,2025-11-11_18h23.04.141,Tutorial 7 | Intentional Binding Task,,2025.1.1,None,2025-11-11 18h23.12.441327 +0530,
0.1,1000.0,exp,63,3,5,space,1.2230002079741098,None,400,1,[2.614008875039872],[2.6140113750007004],5,3,63,3,288.90470887499396,,288.9018847499974,288.90470887499396,289.8909065419575,289.8909065419575,289.9028056249954,291.12147016701056,space,1.2230002079741098,None,291.12306633399567,0.104025625041686,0.41454162501031533,291.5364457090036,291.53826333396137,291.5541525419685,291.5541525419685,291.5541525419685,294.1683556669741,400,1,[2.614008875039872],[2.6140113750007004],1,001,2025-11-11_18h23.04.141,Tutorial 7 | Intentional Binding Task,,2025.1.1,None,2025-11-11 18h23.12.441327 +0530,
0.1,1000.0,exp,64,4,5,space,0.9186225840239786,None,300,1,[1.4983824159717187],[1.4983851250144653],5,4,64,9,294.1714698339929,,294.16848591697635,294.1714698339929,295.15703879197827,295.15703879197827,295.1693559999694,296.08750058396254,space,0.9186225840239786,None,296.08917837496847,0.10179633303778246,0.4024908750434406,296.4938080839929,296.49515791697195,296.5099288339843,296.5099288339843,296.5099288339843,298.0085179589805,300,1,[1.4983824159717187],[1.4983851250144653],1,001,2025-11-11_18h23.04.141,Tutorial 7 | Intentional Binding Task,,2025.1.1,None,2025-11-11 18h23.12.441327 +0530,
0.7,1000.0,exp,65,5,5,space,0.3862922500120476,None,200,1,[0.8126751249656081],[0.8126782909967005],5,5,65,11,298.01817866700003,,298.0086406249902,298.01817866700003,299.0072560000117,299.0072560000117,299.0072560000117,299.40395116695436,space,0.3862922500120476,None,299.40523437497905,0.701907416980248,1.0046131249982864,300.409976541996,300.41625320899766,300.42630637501134,300.42630637501134,300.42630637501134,301.2391856669565,200,1,[0.8126751249656081],[0.8126782909967005],1,001,2025-11-11_18h23.04.141,Tutorial 7 | Intentional Binding Task,,2025.1.1,None,2025-11-11 18h23.12.441327 +0530,
0.7,400.0,unexp,66,6,5,space,0.6413183339755051,None,100,1,[1.3666350000421517],[1.366637958039064],5,6,66,2,301.2513315419783,,301.239313500002,301.2513315419783,302.23607791698305,302.23607791698305,302.2408677089843,302.88811691699084,space,0.6413183339755051,None,302.89003883401165,0.7017975419876166,1.000812916958239,303.8935325839557,303.89491899998393,303.9109298749827,303.9109298749827,303.9109298749827,305.27778370899614,100,1,[1.3666350000421517],[1.366637958039064],1,001,2025-11-11_18h23.04.141,Tutorial 7 | Intentional Binding Task,,2025.1.1,None,2025-11-11 18h23.12.441327 +0530,
0.4,1000.0,exp,67,7,5,space,0.6222806249861605,None,100,1,[2.2268268749467097],[2.226829999999609],5,7,67,10,305.2846546669607,,305.2779142499785,305.2846546669607,306.2740921669756,306.2740921669756,306.2740921669756,306.904322458955,space,0.6222806249861605,None,306.90549316699617,0.4020922920317389,0.7015661250334233,307.6103687499999,307.6120393750025,307.6290899589658,307.6290899589658,307.6290899589658,309.85612212499836,100,1,[2.2268268749467097],[2.226829999999609],1,001,2025-11-11_18h23.04.141,Tutorial 7 | Intentional Binding Task,,2025.1.1,None,2025-11-11 18h23.12.441327 +0530,
0.7,1000.0,exp,68,8,5,space,0.9564151670201682,None,400 ,1,[1.3735239589586854],[1.373527416959405],5,8,68,5,309.86797024996486,,309.8562438749941,309.86797024996486,310.8527482500067,310.8527482500067,310.8568831249722,311.8214789169724,space,0.9564151670201682,None,311.8232172499993,0.7017539170337841,1.0021794590284117,312.8277723339852,312.82913987495704,312.8447669589659,312.8447669589659,312.8447669589659,314.21849541697884,400 ,1,[1.3735239589586854],[1.373527416959405],1,001,2025-11-11_18h23.04.141,Tutorial 7 | Intentional Binding Task,,2025.1.1,None,2025-11-11 18h23.12.441327 +0530,
0.4,400.0,unexp,69,9,5,space,0.4710808329982683,None,700,1,[2.41263312502997],[2.4126357920467854],5,9,69,1,314.2207933340105,,314.2186216249829,314.2207933340105,315.20717445900664,315.20717445900664,315.21928437496535,315.68769108399283,space,0.4710808329982683,None,315.6890124169877,0.4023984160157852,0.7018352500163019,316.3941444999655,316.395505374996,316.4098795419559,316.4098795419559,316.4098795419559,318.8227200419642,700,1,[2.41263312502997],[2.4126357920467854],1,001,2025-11-11_18h23.04.141,Tutorial 7 | Intentional Binding Task,,2025.1.1,None,2025-11-11 18h23.12.441327 +0530,
0.4,1000.0,exp,70,10,5,space,0.4958575830096379,None,700,1,[1.3488192500080913],[1.3488218329730444],5,10,70,4,318.8346422499744,,318.8228440419771,318.8346422499744,319.8193196670036,319.8193196670036,319.8245137499762,320.32085337495664,space,0.4958575830096379,None,320.32249524997314,0.4024680420407094,0.7016588330152445,321.02683570899535,321.02819537499454,321.0435725839925,321.0435725839925,321.0435725839925,322.3926011250005,700,1,[1.3488192500080913],[1.3488218329730444],1,001,2025-11-11_18h23.04.141,Tutorial 7 | Intentional Binding Task,,2025.1.1,None,2025-11-11 18h23.12.441327 +0530,
0.7,1000.0,exp,71,11,5,space,1.451670042006299,None,400,1,[1.0076792920008302],[1.00768204202177],5,11,71,8,322.4014281670097,,322.39272599999094,322.4014281670097,323.39033370895777,323.39033370895777,323.39033370895777,324.8541847919696,space,1.451670042006299,None,324.85569158400176,0.7021622079773806,1.001664916984737,325.8604917919729,325.8618422499858,325.87713462498505,325.87713462498505,325.87713462498505,326.88503733399557,400,1,[1.0076792920008302],[1.00768204202177],1,001,2025-11-11_18h23.04.141,Tutorial 7 | Intentional Binding Task,,2025.1.1,None,2025-11-11 18h23.12.441327 +0530,
0.4,1000.0,exp,72,0,6,space,0.634968041034881,None,100,1,[1.0283889170386828],[1.028391708037816],6,0,72,7,326.8876431249664,,326.8851596249733,326.8876431249664,327.8740296670003,327.8740296670003,327.8859811669681,328.52143037499627,space,0.634968041034881,None,328.5227107919636,0.40201887500006706,0.7017584170098417,329.2277847499936,329.2291731669684,329.24400816700654,329.24400816700654,329.24400816700654,330.27260954200756,100,1,[1.0283889170386828],[1.028391708037816],1,001,2025-11-11_18h23.04.141,Tutorial 7 | Intentional Binding Task,,2025.1.1,None,2025-11-11 18h23.12.441327 +0530,
0.4,400.0,unexp,73,1,6,space,0.2923599999630824,None,100,1,[5.032583833031822],[5.0325880000018515],6,1,73,1,330.2847879169858,,330.2727322920109,330.2847879169858,331.26946845900966,331.26946845900966,331.274150000012,331.5713584169862,space,0.2923599999630824,None,331.57281037495704,0.4020216250210069,0.7016669579898007,332.277636874991,332.27900699997554,332.29354250000324,332.29354250000324,332.29354250000324,337.32634945900645,100,1,[5.032583833031822],[5.0325880000018515],1,001,2025-11-11_18h23.04.141,Tutorial 7 | Intentional Binding Task,,2025.1.1,None,2025-11-11 18h23.12.441327 +0530,
0.7,1000.0,exp,74,2,6,space,1.0218027090304531,None,400 ,1,[3.6246848329901695],[3.6246887909946963],6,2,74,11,337.3346199999796,,337.32647741696564,337.3346199999796,338.3238912919769,338.3238912919769,338.3238912919769,339.3547003339627,space,1.0218027090304531,None,339.35624491696944,0.7019319999963045,1.0016324589960277,340.36079541698564,340.36226320901187,340.3767182919546,340.3767182919546,340.3767182919546,344.0016118749627,400 ,1,[3.6246848329901695],[3.6246887909946963],1,001,2025-11-11_18h23.04.141,Tutorial 7 | Intentional Binding Task,,2025.1.1,None,2025-11-11 18h23.12.441327 +0530,
0.1,400.0,unexp,75,3,6,space,1.6352172499755397,None,500,1,[1.078083916043397],[1.0780876250355504],6,3,75,0,344.00403745897347,,344.00173650000943,344.00403745897347,344.9912365420023,344.9912365420023,345.0026691670064,346.6378297499614,space,1.6352172499755397,None,346.6391327919555,0.10140774998581037,0.4015574590303004,347.043961916992,347.0453201669734,347.06095933396136,347.06095933396136,347.06095933396136,348.13925675000064,500,1,[1.078083916043397],[1.0780876250355504],1,001,2025-11-11_18h23.04.141,Tutorial 7 | Intentional Binding Task,,2025.1.1,None,2025-11-11 18h23.12.441327 +0530,
0.1,1000.0,exp,76,4,6,space,0.24938120797742158,None,700,1,[3.3065848750411533],[3.3065878330380656],6,4,76,3,348.1511494590086,,348.13937741698464,348.1511494590086,349.13599595898995,349.13599595898995,349.1411850419827,349.38818920898484,space,0.24938120797742158,None,349.38952954200795,0.10160787496715784,0.40174433297943324,349.7944380000117,349.79580608400283,349.8114426250104,349.8114426250104,349.8114426250104,353.11823625001125,700,1,[3.3065848750411533],[3.3065878330380656],1,001,2025-11-11_18h23.04.141,Tutorial 7 | Intentional Binding Task,,2025.1.1,None,2025-11-11 18h23.12.441327 +0530,
0.7,1000.0,exp,77,5,6,space,0.2630115409847349,None,100,1,[3.4582972500356846],[3.458300833008252],6,5,77,8,353.1207509589731,,353.11835758399684,353.1207509589731,354.10783095896477,354.10783095896477,354.11931024998194,354.3746016669902,space,0.2630115409847349,None,354.375750584004,0.7112959999940358,1.0112694170093164,355.3903657089686,355.39234408398625,355.4097115419572,355.4097115419572,355.4097115419572,358.8682498339913,100,1,[3.4582972500356846],[3.458300833008252],1,001,2025-11-11_18h23.04.141,Tutorial 7 | Intentional Binding Task,,2025.1.1,None,2025-11-11 18h23.12.441327 +0530,
0.1,1000.0,exp,78,6,6,space,0.2841688750195317,None,500,1,[2.9735671670059673],[2.973570332978852],6,6,78,9,358.8703749589622,,358.8683739999542,358.8703749589622,359.85786387498956,359.85786387498956,359.8693446670077,360.1547664999962,space,0.2841688750195317,None,360.1559928749921,0.10104391700588167,0.40176954196067527,360.5604058339959,360.5617894169991,360.5777479169774,360.5777479169774,360.5777479169774,363.5515169170103,500,1,[2.9735671670059673],[2.973570332978852],1,001,2025-11-11_18h23.04.141,Tutorial 7 | Intentional Binding Task,,2025.1.1,None,2025-11-11 18h23.12.441327 +0530,
0.4,1000.0,exp,79,7,6,space,0.32209129200782627,None,400,1,[0.8130033750203438],[0.8130066670128144],6,7,79,10,363.5545708339778,,363.5516469589784,363.5545708339778,364.5400254589622,364.5400254589622,364.552494500007,364.8714412499685,space,0.32209129200782627,None,364.87301966699306,0.4013067089836113,0.7004072499694303,365.576297083986,365.57751495897537,365.59303837496554,365.59303837496554,365.59303837496554,366.4062649169937,400,1,[0.8130033750203438],[0.8130066670128144],1,001,2025-11-11_18h23.04.141,Tutorial 7 | Intentional Binding Task,,2025.1.1,None,2025-11-11 18h23.12.441327 +0530,
0.7,400.0,unexp,80,8,6,space,0.45541912503540516,None,700,1,[3.4656113749952056],[3.465614291955717],6,8,80,2,366.41784158395603,,366.4063856669818,366.41784158395603,367.4026141249924,367.4026141249924,367.407345124986,367.87134324997896,space,0.45541912503540516,None,367.8730463749962,0.70103100000415,1.0022751249489374,368.8766469169641,368.8778798749554,368.89238400000613,368.89238400000613,368.89238400000613,372.3582079169573,700,1,[3.4656113749952056],[3.465614291955717],1,001,2025-11-11_18h23.04.141,Tutorial 7 | Intentional Binding Task,,2025.1.1,None,2025-11-11 18h23.12.441327 +0530,
0.4,1000.0,exp,81,9,6,space,0.7158066250267439,None,200,1,[0.7273790419567376],[0.7273814579821192],6,9,81,4,372.3680234589847,,372.358332083968,372.3680234589847,373.35720429196954,373.35720429196954,373.35720429196954,374.08740829199087,space,0.7158066250267439,None,374.08892891695723,0.4024618329713121,0.702204916975461,374.79410266695777,374.7955723750056,374.8138579590013,374.8138579590013,374.8138579590013,375.5414501669584,200,1,[0.7273790419567376],[0.7273814579821192],1,001,2025-11-11_18h23.04.141,Tutorial 7 | Intentional Binding Task,,2025.1.1,None,2025-11-11 18h23.12.441327 +0530,
0.7,1000.0,exp,82,10,6,space,0.40881129197077826,None,800,1,[1.3454685419565067],[1.3454712499515153],6,10,82,5,375.5513135420042,,375.5415720419842,375.5513135420042,376.5359736669925,376.5359736669925,376.54031104198657,376.95481391699286,space,0.40881129197077826,None,376.9564737089677,0.701716709008906,1.0008763750083745,377.9601147919893,377.9615444589872,377.9768754999968,377.9768754999968,377.9768754999968,379.3225579999853,800,1,[1.3454685419565067],[1.3454712499515153],1,001,2025-11-11_18h23.04.141,Tutorial 7 | Intentional Binding Task,,2025.1.1,None,2025-11-11 18h23.12.441327 +0530,
0.1,1000.0,exp,83,11,6,space,0.8105222919839434,None,600,1,[0.9433702920214273],[0.9433738330262713],6,11,83,6,379.33466262498405,,379.3226840419811,379.33466262498405,380.3191252499819,380.3191252499819,380.32426024996676,381.1371559170075,space,0.8105222919839434,None,381.1383051669691,0.1027052910067141,0.40281087503535673,381.54457416699734,381.5459736249759,381.56243529199855,381.56243529199855,381.56243529199855,382.5060208750074,600,1,[0.9433702920214273],[0.9433738330262713],1,001,2025-11-11_18h23.04.141,Tutorial 7 | Intentional Binding Task,,2025.1.1,None,2025-11-11 18h23.12.441327 +0530,
0.1,400.0,unexp,84,0,7,space,0.42800841701682657,None,300,1,[1.9013033339870162],[1.9013068749918602],7,0,84,0,382.5179507089779,,382.50614779198077,382.5179507089779,383.50258054200094,383.50258054200094,383.5076997089782,383.9377234589774,space,0.42800841701682657,None,383.93912883399753,0.10256483301054686,0.41506158298579976,384.3531639589928,384.3546853339649,384.37105879199225,384.37105879199225,384.37105879199225,386.27258854196407,300,1,[1.9013033339870162],[1.9013068749918602],1,001,2025-11-11_18h23.04.141,Tutorial 7 | Intentional Binding Task,,2025.1.1,None,2025-11-11 18h23.12.441327 +0530,
0.4,400.0,unexp,85,1,7,space,0.5594184580259025,None,100,1,[1.0477127499761991],[1.0477157499990426],7,1,85,1,386.2848611669615,,386.27271158399526,386.2848611669615,387.2691263339948,387.2691263339948,387.2740573339979,387.8369287090027,space,0.5594184580259025,None,387.8382069999934,0.39905079203890637,0.6987304590293206,388.5401304169791,388.54188012500526,388.5578993340023,388.5578993340023,388.5578993340023,389.6058225419838,100,1,[1.0477127499761991],[1.0477157499990426],1,001,2025-11-11_18h23.04.141,Tutorial 7 | Intentional Binding Task,,2025.1.1,None,2025-11-11 18h23.12.441327 +0530,
0.4,1000.0,exp,86,2,7,space,0.652839332993608,None,700 ,1,[1.6148499160190113],[1.6148530410137028],7,2,86,4,389.6177737090038,,389.60594258399215,389.6177737090038,390.6025392090087,390.6025392090087,390.60664012498455,391.25764254201204,space,0.652839332993608,None,391.25886533397716,0.4114997499855235,0.7115886669489555,391.97385929198936,391.9759795839782,391.9910641249735,391.9910641249735,391.9910641249735,393.60614216700196,700 ,1,[1.6148499160190113],[1.6148530410137028],1,001,2025-11-11_18h23.04.141,Tutorial 7 | Intentional Binding Task,,2025.1.1,None,2025-11-11 18h23.12.441327 +0530,
0.4,1000.0,exp,87,3,7,space,0.5277274579857476,None,400,1,[1.078338041959796],[1.078341584012378],7,3,87,7,393.6178979589604,,393.6062639169977,393.6178979589604,394.6025516669615,394.6025516669615,394.6076592919999,395.13794304197654,space,0.5277274579857476,None,395.1397750839824,0.4020124999806285,0.7017803749768063,395.844222499989,395.8456690000021,395.8606838749838,395.8606838749838,395.8606838749838,396.93924545898335,400,1,[1.078338041959796],[1.078341584012378],1,001,2025-11-11_18h23.04.141,Tutorial 7 | Intentional Binding Task,,2025.1.1,None,2025-11-11 18h23.12.441327 +0530,
0.4,1000.0,exp,88,4,7,space,0.2786040420178324,None,100,1,[1.0291364999720827],[1.0291392920189537],7,4,88,10,396.95108270895435,,396.9393631669809,396.95108270895435,397.93573562498204,397.93573562498204,397.94049408397404,398.22081762499874,space,0.2786040420178324,None,398.2223923339625,0.40174087503692135,0.7021341660292819,398.927038541995,398.92845249996753,398.9431422089692,398.9431422089692,398.9431422089692,399.97250687499763,100,1,[1.0291364999720827],[1.0291392920189537],1,001,2025-11-11_18h23.04.141,Tutorial 7 | Intentional Binding Task,,2025.1.1,None,2025-11-11 18h23.12.441327 +0530,
0.7,1000.0,exp,89,5,7,space,0.3251791670336388,None,400,1,[1.3934612500015646],[1.3934644159744494],7,5,89,8,399.98440629197285,,399.97262587497244,399.98440629197285,400.9691269999603,400.9691269999603,400.97425320895854,401.3046756669646,space,0.3251791670336388,None,401.3065597919631,0.701918208040297,1.0018519579898566,402.31088341696886,402.3123156669899,402.3289906249847,402.3289906249847,402.3289906249847,403.7226840839721,400,1,[1.3934612500015646],[1.3934644159744494],1,001,2025-11-11_18h23.04.141,Tutorial 7 | Intentional Binding Task,,2025.1.1,None,2025-11-11 18h23.12.441327 +0530,
0.1,1000.0,exp,90,6,7,space,0.5159085839986801,None,600,1,[1.7626106669777073],[1.7626146670081653],7,6,90,6,403.7345795839792,,403.72280504199443,403.7345795839792,404.71916820900515,404.71916820900515,404.7240322919679,405.2378502089996,space,0.5159085839986801,None,405.2390352920047,0.10079625004436821,0.4019300000509247,405.6431543339859,405.64454066701,405.6596430419595,405.6596430419595,405.6596430419595,407.4224786249688,600,1,[1.7626106669777073],[1.7626146670081653],1,001,2025-11-11_18h23.04.141,Tutorial 7 | Intentional Binding Task,,2025.1.1,None,2025-11-11 18h23.12.441327 +0530,
0.7,1000.0,exp,91,7,7,space,0.6129800829803571,None,400 ,1,[1.548296874971129],[1.5482993749901652],7,7,91,11,407.4344058340066,,407.4226080419612,407.4344058340066,408.4190209999797,408.4190209999797,408.42326395900454,409.03815183398547,space,0.6129800829803571,None,409.0394934589858,0.7017446249956265,1.0016890830011107,410.04420804197434,410.04568524996284,410.0608034589677,410.0608034589677,410.0608034589677,411.609328291961,400 ,1,[1.548296874971129],[1.5482993749901652],1,001,2025-11-11_18h23.04.141,Tutorial 7 | Intentional Binding Task,,2025.1.1,None,2025-11-11 18h23.12.441327 +0530,
0.1,1000.0,exp,92,8,7,space,0.8998094580019824,None,100,1,[0.9333558329963125],[0.933358833019156],7,8,92,9,411.6176875419915,,411.6094491669792,411.6176875419915,412.6051040419843,412.6051040419843,412.6051040419843,413.50636274996214,space,0.8998094580019824,None,413.5072772919666,0.1125717909890227,0.4130446659983136,413.9236452499754,413.92576729197754,413.9412119999761,413.9412119999761,413.9412119999761,414.87479858397273,100,1,[0.9333558329963125],[0.933358833019156],1,001,2025-11-11_18h23.04.141,Tutorial 7 | Intentional Binding Task,,2025.1.1,None,2025-11-11 18h23.12.441327 +0530,
0.7,1000.0,exp,93,9,7,space,0.5814709159894846,None,100,1,[1.344914416957181],[1.3449183329939842],7,9,93,5,414.8845506669604,,414.87492349999957,414.8845506669604,415.8723669589963,415.8723669589963,415.8723669589963,416.4577031249646,space,0.5814709159894846,None,416.458864833985,0.7113284589722753,1.0114508339902386,417.4738129999605,417.4759522919776,417.4941605000058,417.4941605000058,417.4941605000058,418.83930312498705,100,1,[1.344914416957181],[1.3449183329939842],1,001,2025-11-11_18h23.04.141,Tutorial 7 | Intentional Binding Task,,2025.1.1,None,2025-11-11 18h23.12.441327 +0530,
0.7,400.0,unexp,94,10,7,space,0.706813124998007,None,700 ,1,[2.16227670898661],[2.1622801669873297],7,10,94,2,418.85118800000055,,418.8394323340035,418.85118800000055,419.8357543339953,419.8357543339953,419.8411353339907,420.55456858396064,space,0.706813124998007,None,420.55584049999015,0.7014306249911897,1.0016448749811389,421.5607242920087,421.56217341695447,421.5767774169799,421.5767774169799,421.5767774169799,423.73929583397694,700 ,1,[2.16227670898661],[2.1622801669873297],1,001,2025-11-11_18h23.04.141,Tutorial 7 | Intentional Binding Task,,2025.1.1,None,2025-11-11 18h23.12.441327 +0530,
0.1,1000.0,exp,95,11,7,space,1.9703650409937836,None,400,1,[2.0185374169959687],[2.0185411669663154],7,11,95,3,423.75118687498616,,423.7394164169673,423.75118687498616,424.7361382920062,424.7361382920062,424.739683666965,426.7206146249664,space,1.9703650409937836,None,426.72226212499663,0.10415558400563896,0.4151002920116298,427.13611541700084,427.13787245895946,427.15372262499295,427.15372262499295,427.15372262499295,429.17249583400553,400,1,[2.0185374169959687],[2.0185411669663154],1,001,2025-11-11_18h23.04.141,Tutorial 7 | Intentional Binding Task,,2025.1.1,None,2025-11-11 18h23.12.441327 +0530,
0.4,400.0,unexp,96,0,8,space,0.6105220000026748,None,400,1,[2.640310166985728],[2.6403132090345025],8,0,96,1,429.1845275000087,,429.1726171670016,429.1845275000087,430.1690689169918,430.1690689169918,430.1744247919996,430.7873927089968,space,0.6105220000026748,None,430.7886340839905,0.4020064170472324,0.7024947500322014,431.49403437500587,431.4958005839726,431.51103449997026,431.51103449997026,431.51103449997026,434.15157691697823,400,1,[2.640310166985728],[2.6403132090345025],1,001,2025-11-11_18h23.04.141,Tutorial 7 | Intentional Binding Task,,2025.1.1,None,2025-11-11 18h23.12.441327 +0530,
0.4,1000.0,exp,97,1,8,space,0.9979848749935627,None,400 ,1,[2.8975508750299923],[2.8975547080044635],8,1,97,7,434.154419916973,,434.1516950840014,434.154419916973,435.140360874997,435.140360874997,435.15227920899633,436.1411782919895,space,0.9979848749935627,None,436.1423797919997,0.41123037494253367,0.7111975829466246,436.85693608399015,436.85919137496967,436.8748573749908,436.8748573749908,436.8748573749908,439.77263424999546,400 ,1,[2.8975508750299923],[2.8975547080044635],1,001,2025-11-11_18h23.04.141,Tutorial 7 | Intentional Binding Task,,2025.1.1,None,2025-11-11 18h23.12.441327 +0530,
0.1,1000.0,exp,98,2,8,space,0.8851595409796573,None,200,1,[1.14931849995628],[1.1493211659835652],8,2,98,6,439.78474379196996,,439.7727811249788,439.78474379196996,440.7690531249973,440.7690531249973,440.7742096669972,441.65863320900826,space,0.8851595409796573,None,441.65983812499326,0.11047179205343127,0.4104493330232799,442.0737903339905,442.07587183400756,442.09156745899236,442.09156745899236,442.09156745899236,443.24111408396857,200,1,[1.14931849995628],[1.1493211659835652],1,001,2025-11-11_18h23.04.141,Tutorial 7 | Intentional Binding Task,,2025.1.1,None,2025-11-11 18h23.12.441327 +0530,
0.4,1000.0,exp,99,3,8,space,0.2558979589957744,None,200 ,1,[1.4788076249533333],[1.4788109999499284],8,3,99,10,443.2509767090087,,443.2412315419642,443.2509767090087,444.24006062495755,444.24006062495755,444.24006062495755,444.5041611249908,space,0.2558979589957744,None,444.5054789999849,0.4023689579917118,0.7020220420090482,445.2105087499949,445.2119740420021,445.2270557919983,445.2270557919983,445.2270557919983,446.7060937919887,200 ,1,[1.4788076249533333],[1.4788109999499284],1,001,2025-11-11_18h23.04.141,Tutorial 7 | Intentional Binding Task,,2025.1.1,None,2025-11-11 18h23.12.441327 +0530,
0.1,400.0,unexp,100,4,8,space,0.5696871660184115,None,100,1,[1.4965736659942195],[1.4965773749863729],8,4,100,0,446.717802500003,,446.70621350000147,446.717802500003,447.70237633399665,447.70237633399665,447.7070053750067,448.2745939999586,space,0.5696871660184115,None,448.27576441696147,0.1109371249913238,0.4110932920011692,448.6902567920042,448.69233549997443,448.70882441697177,448.70882441697177,448.70882441697177,450.20562550000614,100,1,[1.4965736659942195],[1.4965773749863729],1,001,2025-11-11_18h23.04.141,Tutorial 7 | Intentional Binding Task,,2025.1.1,None,2025-11-11 18h23.12.441327 +0530,
0.7,1000.0,exp,101,5,8,space,0.4146542919916101,None,200,1,[0.8096041670069098],[0.8096077090012841],8,5,101,8,450.21807416697266,,450.20575637498405,450.21807416697266,451.20240145898424,451.20240145898424,451.2072442089557,451.62017004197696,space,0.4146542919916101,None,451.6214325840119,0.702847666980233,1.0021507919882424,452.6267217499553,452.628567125008,452.6460413339664,452.6460413339664,452.6460413339664,453.45587266696384,200,1,[0.8096041670069098],[0.8096077090012841],1,001,2025-11-11_18h23.04.141,Tutorial 7 | Intentional Binding Task,,2025.1.1,None,2025-11-11 18h23.12.441327 +0530,
0.7,400.0,unexp,102,6,8,space,0.27647029102081433,None,500,1,[2.5110620420309715],[2.5110645420500077],8,6,102,2,453.46758366696304,,453.4559987919638,453.46758366696304,454.45235699997284,454.45235699997284,454.45756949996576,454.73825620900607,space,0.27647029102081433,None,454.7402806250029,0.7011062080273405,1.0137809999869205,455.75234912498854,455.75346933398396,455.7647784999572,455.7647784999572,455.7647784999572,458.2760816249647,500,1,[2.5110620420309715],[2.5110645420500077],1,001,2025-11-11_18h23.04.141,Tutorial 7 | Intentional Binding Task,,2025.1.1,None,2025-11-11 18h23.12.441327 +0530,
0.1,1000.0,exp,103,7,8,space,0.30816345795756206,None,600,1,[0.9780686660087667],[0.9780719160335138],8,7,103,9,458.28428791696206,,458.2762034999905,458.28428791696206,459.27374370896723,459.27374370896723,459.27374370896723,459.5878390420112,space,0.30816345795756206,None,459.589012041979,0.10085241700289771,0.40218104200903326,459.99322587496135,459.9946624999866,460.0109075419605,460.0109075419605,460.0109075419605,460.98919433396077,600,1,[0.9780686660087667],[0.9780719160335138],1,001,2025-11-11_18h23.04.141,Tutorial 7 | Intentional Binding Task,,2025.1.1,None,2025-11-11 18h23.12.441327 +0530,
0.7,1000.0,exp,104,8,8,space,0.27013174997409806,None,200,1,[0.8138772080419585],[0.813880458008498],8,8,104,5,461.0011070839828,,460.9893210839946,461.0011070839828,461.9856265420094,461.9856265420094,461.9905127089587,462.2572601669817,space,0.27013174997409806,None,462.2585278339684,0.7117849999922328,1.0117384159821086,463.2737228749902,463.27587245899485,463.29153979197145,463.29153979197145,463.29153979197145,464.1056349169812,200,1,[0.8138772080419585],[0.813880458008498],1,001,2025-11-11_18h23.04.141,Tutorial 7 | Intentional Binding Task,,2025.1.1,None,2025-11-11 18h23.12.441327 +0530,
0.7,1000.0,exp,105,9,8,space,0.24845600000116974,None,700,1,[0.8935637089889497],[0.8935664590098895],8,9,105,11,464.1175482919789,,464.1057639589999,464.1175482919789,465.1022685839562,465.1022685839562,465.10616120899795,465.35407949995715,space,0.24845600000116974,None,465.3552780839964,0.7023586249561049,1.0023804169613868,466.3609832499642,466.3624270419823,466.3785067090066,466.3785067090066,466.3785067090066,467.2722967499867,700,1,[0.8935637089889497],[0.8935664590098895],1,001,2025-11-11_18h23.04.141,Tutorial 7 | Intentional Binding Task,,2025.1.1,None,2025-11-11 18h23.12.441327 +0530,
0.1,1000.0,exp,106,10,8,space,0.31450991600286216,None,200,1,[1.6125251660123467],[1.612527791003231],8,10,106,3,467.2843695419724,,467.27242333395407,467.2843695419724,468.26909366698237,468.26909366698237,468.27450941700954,468.5873014589888,space,0.31450991600286216,None,468.58887958398554,0.10219829197740182,0.4028210419928655,468.9939161670045,468.9953837089706,469.0097350839642,469.0097350839642,469.0097350839642,470.6224913749611,200,1,[1.6125251660123467],[1.612527791003231],1,001,2025-11-11_18h23.04.141,Tutorial 7 | Intentional Binding Task,,2025.1.1,None,2025-11-11 18h23.12.441327 +0530,
0.4,1000.0,exp,107,11,8,space,0.29259116703178734,None,100,1,[2.980138209008146],[2.9801424589823],8,11,107,4,470.63426316698315,,470.6226183339604,470.63426316698315,471.6188874169602,471.6188874169602,471.6227281249594,471.92038679198595,space,0.29259116703178734,None,471.9218577090069,0.4025865000439808,0.7025649590068497,472.62729854200734,472.6287373339874,472.6440161250066,472.6440161250066,472.6440161250066,475.6243839589879,100,1,[2.980138209008146],[2.9801424589823],1,001,2025-11-11_18h23.04.141,Tutorial 7 | Intentional Binding Task,,2025.1.1,None,2025-11-11 18h23.12.441327 +0530,
0.7,1000.0,exp,108,0,9,space,0.2993814169894904,None,600,1,[1.6461662910296582],[1.646169166022446],9,0,108,8,475.63420920900535,,475.6245158339734,475.63420920900535,476.6189794999664,476.6189794999664,476.62377779197413,476.92116404196713,space,0.2993814169894904,None,476.92264995898586,0.70042041601846,1.0015480000292882,477.9259069589898,477.9273196249851,477.9427233749884,477.9427233749884,477.9427233749884,479.5891193749849,600,1,[1.6461662910296582],[1.646169166022446],1,001,2025-11-11_18h23.04.141,Tutorial 7 | Intentional Binding Task,,2025.1.1,None,2025-11-11 18h23.12.441327 +0530,
0.1,1000.0,exp,109,1,9,space,0.2687514170538634,None,200,1,[1.2135311249876395],[1.213534582988359],9,1,109,9,479.60105887497775,,479.58925016695866,479.60105887497775,480.5855454169796,480.5855454169796,480.5907167919795,480.8583284589695,space,0.2687514170538634,None,480.8594772919896,0.11065533303190023,0.4106540830107406,481.27373358397745,481.275886333955,481.2921374999569,481.2921374999569,481.2921374999569,482.5059051249991,200,1,[1.2135311249876395],[1.213534582988359],1,001,2025-11-11_18h23.04.141,Tutorial 7 | Intentional Binding Task,,2025.1.1,None,2025-11-11 18h23.12.441327 +0530,
0.4,1000.0,exp,110,2,9,space,0.4719097079942003,None,100,1,[0.8262588329962455],[0.8262615000130609],9,2,110,4,482.5177038339898,,482.5060324589722,482.5177038339898,483.5022733339574,483.5022733339574,483.507152709004,483.9878530839924,space,0.4719097079942003,None,483.9898817499634,0.40185600001132116,0.7011575420037843,484.693656333955,484.6955219999654,484.71291449997807,484.71291449997807,484.71291449997807,485.53940637497,100,1,[0.8262588329962455],[0.8262615000130609],1,001,2025-11-11_18h23.04.141,Tutorial 7 | Intentional Binding Task,,2025.1.1,None,2025-11-11 18h23.12.441327 +0530,
0.1,1000.0,exp,111,3,9,space,0.45981162501266226,None,400,1,[1.1110092910239473],[1.111012750014197],9,3,111,3,485.5508412499912,,485.53952620900236,485.5508412499912,486.5354164589662,486.5354164589662,486.53946937498404,487.0041488749557,space,0.45981162501266226,None,487.005381291965,0.10202533297706395,0.401713875005953,487.4104645419866,487.41191379196243,487.4279431249597,487.4279431249597,487.4279431249597,488.5391897090012,400,1,[1.1110092910239473],[1.111012750014197],1,001,2025-11-11_18h23.04.141,Tutorial 7 | Intentional Binding Task,,2025.1.1,None,2025-11-11 18h23.12.441327 +0530,
0.1,400.0,unexp,112,4,9,space,0.24857441597850993,None,100,1,[1.731203541974537],[1.7312060839612968],9,4,112,0,488.5510163749568,,488.539308708976,488.5510163749568,489.5355571669643,489.5355571669643,489.54047449998325,489.7879703340004,space,0.24857441597850993,None,489.7896409169771,0.10105699999257922,0.40148591698380187,490.19361720897723,490.1951877499814,490.210057416989,490.210057416989,490.210057416989,491.94148441700963,100,1,[1.731203541974537],[1.7312060839612968],1,001,2025-11-11_18h23.04.141,Tutorial 7 | Intentional Binding Task,,2025.1.1,None,2025-11-11 18h23.12.441327 +0530,
0.7,1000.0,exp,113,5,9,space,0.48700483300490305,None,400,1,[1.5960403750068508],[1.596043333003763],9,5,113,11,491.95084308396326,,491.9416124999989,491.95084308396326,492.93997412500903,492.93997412500903,492.93997412500903,493.437169916986,space,0.48700483300490305,None,493.4386634589755,0.7024023339617997,1.0027378749800846,494.4437133339816,494.445209958998,494.459366458992,494.459366458992,494.459366458992,496.05564849998336,400,1,[1.5960403750068508],[1.596043333003763],1,001,2025-11-11_18h23.04.141,Tutorial 7 | Intentional Binding Task,,2025.1.1,None,2025-11-11 18h23.12.441327 +0530,
0.7,400.0,unexp,114,6,9,space,0.2587693749810569,None,700,1,[2.295309209031984],[2.295312499976717],9,6,114,2,496.0676427499857,,496.05577029200504,496.0676427499857,497.0521667089779,497.0521667089779,497.05705595895415,497.3211240419769,space,0.2587693749810569,None,497.32244424999226,0.7018094589584507,1.0031082920031622,498.32747354195453,498.3302367919823,498.3436360839987,498.3436360839987,498.3436360839987,500.6391818340053,700,1,[2.295309209031984],[2.295312499976717],1,001,2025-11-11_18h23.04.141,Tutorial 7 | Intentional Binding Task,,2025.1.1,None,2025-11-11 18h23.12.441327 +0530,
0.4,400.0,unexp,115,7,9,space,0.23814145801588893,None,400 ,1,[2.5107465839828365],[2.5107501249876805],9,7,115,1,500.65098008397035,,500.639306166966,500.65098008397035,501.63557516696164,501.63557516696164,501.6401473750011,501.88775662495755,space,0.23814145801588893,None,501.8897328749881,0.4016360000241548,0.7016032080282457,502.5939584170119,502.5954643340083,502.61136620899197,502.61136620899197,502.61136620899197,505.1223428749945,400 ,1,[2.5107465839828365],[2.5107501249876805],1,001,2025-11-11_18h23.04.141,Tutorial 7 | Intentional Binding Task,,2025.1.1,None,2025-11-11 18h23.12.441327 +0530,
0.4,1000.0,exp,116,8,9,space,0.34785041597206146,None,200,1,[1.6646975000039674],[1.6646999170188792],9,8,116,10,505.13430520897964,,505.12246508395765,505.13430520897964,506.1188733750023,506.1188733750023,506.1235967919929,506.4712044589687,space,0.34785041597206146,None,506.4724489999935,0.40163220901740715,0.7015565000474453,507.1768916249857,507.1783525419887,507.1931629590108,507.1931629590108,507.1931629590108,508.8580943749985,200,1,[1.6646975000039674],[1.6646999170188792],1,001,2025-11-11_18h23.04.141,Tutorial 7 | Intentional Binding Task,,2025.1.1,None,2025-11-11 18h23.12.441327 +0530,
0.4,1000.0,exp,117,9,9,space,0.2754754159832373,None,400 ,1,[1.5077066660160199],[1.5077093329746276],9,9,117,7,508.8674397089635,,508.85821620898787,508.8674397089635,509.85218462499324,509.85218462499324,509.85735212499276,510.13756145897787,space,0.2754754159832373,None,510.13890224997886,0.4022890420164913,0.7024165830225684,510.844403458992,510.8458552499651,510.8643792499788,510.8643792499788,510.8643792499788,512.3723203339614,400 ,1,[1.5077066660160199],[1.5077093329746276],1,001,2025-11-11_18h23.04.141,Tutorial 7 | Intentional Binding Task,,2025.1.1,None,2025-11-11 18h23.12.441327 +0530,
0.1,1000.0,exp,118,10,9,space,0.3337080409983173,None,500,1,[1.614240000024438],[1.6142427080194466],9,10,118,6,512.3841125000035,,512.3724467089633,512.3841125000035,513.3688344999682,513.3688344999682,513.3736559170065,513.7084687089664,space,0.3337080409983173,None,513.7096662499825,0.1104210420162417,0.4103890829719603,514.1232183749671,514.1253172089928,514.1411225839984,514.1411225839984,514.1411225839984,515.7556039170013,500,1,[1.614240000024438],[1.6142427080194466],1,001,2025-11-11_18h23.04.141,Tutorial 7 | Intentional Binding Task,,2025.1.1,None,2025-11-11 18h23.12.441327 +0530,
0.7,1000.0,exp,119,11,9,space,0.25337120797485113,None,200,1,[0.715884666016791],[0.7158872910076752],9,11,119,5,515.7675787920016,,515.7557285419898,515.7675787920016,516.7521085419576,516.7521085419576,516.7568125840044,517.0079747089767,space,0.25337120797485113,None,517.0091569999931,0.7109667909680866,1.0109116249950603,518.0234923340031,518.0255971669685,518.0420916670118,518.0420916670118,518.0420916670118,518.758222125005,200,1,[0.715884666016791],[0.7158872910076752],1,001,2025-11-11_18h23.04.141,Tutorial 7 | Intentional Binding Task,,2025.1.1,None,2025-11-11 18h23.12.441327 +0530,
0.4,1000.0,exp,120,0,10,space,0.3542687500012107,None,100,1,[0.811321749992203],[0.8113245419808663],10,0,120,10,518.7674212919665,,518.7583483749768,518.7674212919665,519.7573130839737,519.7573130839737,519.7573130839737,520.1210146669764,space,0.3542687500012107,None,520.1222533339751,0.4022272080183029,0.7022085420321673,520.8279249589541,520.8294001669856,520.8440174999996,520.8440174999996,520.8440174999996,521.655580083956,100,1,[0.811321749992203],[0.8113245419808663],1,001,2025-11-11_18h23.04.141,Tutorial 7 | Intentional Binding Task,,2025.1.1,None,2025-11-11 18h23.12.441327 +0530,
0.7,1000.0,exp,121,1,10,space,0.539094333013054,None,600,1,[2.5973422919632867],[2.597346374997869],10,1,121,8,521.6675700419582,,521.6556995839928,521.6675700419582,522.6521786249941,522.6521786249941,522.6575874589616,523.2043907920015,space,0.539094333013054,None,523.2061595419655,0.7010747080203146,1.0020280420430936,524.210011416988,524.2114590840065,524.2270424169837,524.2270424169837,524.2270424169837,526.8246204999741,600,1,[2.5973422919632867],[2.597346374997869],1,001,2025-11-11_18h23.04.141,Tutorial 7 | Intentional Binding Task,,2025.1.1,None,2025-11-11 18h23.12.441327 +0530,
0.4,1000.0,exp,122,2,10,space,0.5011962919961661,None,800,1,[1.3945969589985907],[1.3946005000034347],10,2,122,4,526.8342607499799,,526.8247504589963,526.8342607499799,527.8230387920048,527.8230387920048,527.8230387920048,528.3376799169928,space,0.5011962919961661,None,528.3391229999834,0.4020792089868337,0.7019649170106277,529.0440674169804,529.0455798750045,529.0609650000115,529.0609650000115,529.0609650000115,530.4557962919935,800,1,[1.3945969589985907],[1.3946005000034347],1,001,2025-11-11_18h23.04.141,Tutorial 7 | Intentional Binding Task,,2025.1.1,None,2025-11-11 18h23.12.441327 +0530,
0.1,1000.0,exp,123,3,10,space,0.2782050829846412,None,900,1,[1.5188471250003204],[1.5188498339848593],10,3,123,9,530.4674214170082,,530.4559189999709,530.4674214170082,531.451927334012,531.451927334012,531.4561987500056,531.7374612090061,space,0.2782050829846412,None,531.7386425840086,0.1036917080054991,0.4146816250286065,532.1525374589837,532.1544367499882,532.1698828339577,532.1698828339577,532.1698828339577,533.6889727499802,900,1,[1.5188471250003204],[1.5188498339848593],1,001,2025-11-11_18h23.04.141,Tutorial 7 | Intentional Binding Task,,2025.1.1,None,2025-11-11 18h23.12.441327 +0530,
0.4,400.0,unexp,124,4,10,space,0.4768390000099316,None,300,1,[1.057082332961727],[1.0570856249541976],10,4,124,1,533.7009348749998,,533.6890961249592,533.7009348749998,534.6853029169724,534.6853029169724,534.689544999972,535.1702987499884,space,0.4768390000099316,None,535.1715910839848,0.40253424999536946,0.7019009170471691,535.876778292004,535.8786136249546,535.8983800839633,535.8983800839633,535.8983800839633,536.955692458956,300,1,[1.057082332961727],[1.0570856249541976],1,001,2025-11-11_18h23.04.141,Tutorial 7 | Intentional Binding Task,,2025.1.1,None,2025-11-11 18h23.12.441327 +0530,
0.7,1000.0,exp,125,5,10,space,0.270945375028532,None,100,1,[2.2301981250056997],[2.230201374972239],10,5,125,5,536.9675537089934,,536.9558209590032,536.9675537089934,537.952046499995,537.952046499995,537.9561541249859,538.224298541958,space,0.270945375028532,None,538.2256267089979,0.7112164169666357,1.0113131249672733,539.2403326249914,539.2424827499781,539.2587260839646,539.2587260839646,539.2587260839646,541.4891669169883,100,1,[2.2301981250056997],[2.230201374972239],1,001,2025-11-11_18h23.04.141,Tutorial 7 | Intentional Binding Task,,2025.1.1,None,2025-11-11 18h23.12.441327 +0530,
0.7,400.0,unexp,126,6,10,space,0.2683940000133589,None,400 ,1,[1.147835124982521],[1.14783825003542],10,6,126,2,541.5011692919652,,541.4892854169593,541.5011692919652,542.4854588749586,542.4854588749586,542.4902248340077,542.7584233339876,space,0.2683940000133589,None,542.7595847089542,0.7102449999656528,1.0104261249653064,543.7733235419728,543.7753239590093,543.7908898339956,543.7908898339956,543.7908898339956,544.9389620419824,400 ,1,[1.147835124982521],[1.14783825003542],1,001,2025-11-11_18h23.04.141,Tutorial 7 | Intentional Binding Task,,2025.1.1,None,2025-11-11 18h23.12.441327 +0530,
0.7,1000.0,exp,127,7,10,space,0.40342362504452467,None,300 ,1,[1.2473520840285346],[1.2473552500014193],10,7,127,11,544.9508612499922,,544.939084084006,544.9508612499922,545.9353987089708,545.9353987089708,545.9400983749656,546.3416979169706,space,0.40342362504452467,None,546.3428729589796,0.7104915410163812,1.0104515409911983,547.3567888339749,547.3589143749559,547.374631166982,547.374631166982,547.374631166982,548.6222212089924,300 ,1,[1.2473520840285346],[1.2473552500014193],1,001,2025-11-11_18h23.04.141,Tutorial 7 | Intentional Binding Task,,2025.1.1,None,2025-11-11 18h23.12.441327 +0530,
0.1,1000.0,exp,128,8,10,space,0.49993283301591873,None,100,1,[0.7463882919983007],[0.7463906249613501],10,8,128,3,548.634023208986,,548.6223442499759,548.634023208986,549.618808041967,549.618808041967,549.6236168749747,550.1209318339825,space,0.49993283301591873,None,550.1223790419754,0.10189629200613126,0.40151616698130965,550.5268885419937,550.5283719169674,550.5444947499782,550.5444947499782,550.5444947499782,551.2911309999763,100,1,[0.7463882919983007],[0.7463906249613501],1,001,2025-11-11_18h23.04.141,Tutorial 7 | Intentional Binding Task,,2025.1.1,None,2025-11-11 18h23.12.441327 +0530,
0.4,1000.0,exp,129,9,10,space,0.22525816695997491,None,900,1,[0.9787111660116352],[0.9787149580079131],10,9,129,7,551.3006894169957,,551.2912507919827,551.3006894169957,552.2853212920018,552.2853212920018,552.2905821249587,552.5207951249904,space,0.22525816695997491,None,552.5223799169762,0.40167058299994096,0.7016964580398053,553.2269031669712,553.2294653339777,553.2433773339726,553.2433773339726,553.2433773339726,554.2223289589747,900,1,[0.9787111660116352],[0.9787149580079131],1,001,2025-11-11_18h23.04.141,Tutorial 7 | Intentional Binding Task,,2025.1.1,None,2025-11-11 18h23.12.441327 +0530,
0.1,1000.0,exp,130,10,10,space,0.27885995898395777,None,700,1,[1.0450913749518804],[1.0450946249766275],10,10,130,6,554.2340302089578,,554.2224567499943,554.2340302089578,555.2187176249572,555.2187176249572,555.2238955840003,555.5042670419789,space,0.27885995898395777,None,555.5057859169901,0.10120391700183973,0.40179233299568295,555.9100122500095,555.911474249966,555.9269009999698,555.9269009999698,555.9269009999698,556.9722246250021,700,1,[1.0450913749518804],[1.0450946249766275],1,001,2025-11-11_18h23.04.141,Tutorial 7 | Intentional Binding Task,,2025.1.1,None,2025-11-11 18h23.12.441327 +0530,
0.1,400.0,unexp,131,11,10,space,1.0207281250040978,None,300,1,[0.7998067080043256],[0.7998091659974307],10,11,131,0,556.9839576669619,,556.9723543339642,556.9839576669619,557.968737874995,557.968737874995,557.9729915839853,558.990779124957,space,1.0207281250040978,None,558.9919661669992,0.11120020801899955,0.411361415986903,559.406634791987,559.408752999967,559.4242700840114,559.4242700840114,559.4242700840114,560.2242932089721,300,1,[0.7998067080043256],[0.7998091659974307],1,001,2025-11-11_18h23.04.141,Tutorial 7 | Intentional Binding Task,,2025.1.1,None,2025-11-11 18h23.12.441327 +0530,
0.1,1000.0,exp,132,0,11,space,0.3887484170263633,None,100,1,[1.164832792012021],[1.1648358330130577],11,0,132,9,560.234000958968,,560.2244252919918,560.234000958968,561.2186883339891,561.2186883339891,561.2233711669687,561.6210045419866,space,0.3887484170263633,None,561.622375292005,0.10202241700608283,0.40146041702246293,562.0269019589759,562.0284182089963,562.0427251249785,562.0427251249785,562.0427251249785,563.2077850420028,100,1,[1.164832792012021],[1.1648358330130577],1,001,2025-11-11_18h23.04.141,Tutorial 7 | Intentional Binding Task,,2025.1.1,None,2025-11-11 18h23.12.441327 +0530,
0.7,400.0,unexp,133,1,11,space,0.7541524580447003,None,200,1,[2.26118170801783],[2.261185207986273],11,1,133,2,563.2173252920038,,563.2079195840051,563.2173252920038,564.202474458958,564.202474458958,564.2072521669907,564.9708290839917,space,0.7541524580447003,None,564.9726729589747,0.701790083956439,1.0017960419645533,565.9770252089947,565.9784624169697,565.9942151249852,565.9942151249852,565.9942151249852,568.2556314169778,200,1,[2.26118170801783],[2.261185207986273],1,001,2025-11-11_18h23.04.141,Tutorial 7 | Intentional Binding Task,,2025.1.1,None,2025-11-11 18h23.12.441327 +0530,
0.4,1000.0,exp,134,2,11,space,0.26451808301499113,None,500,1,[0.778302458988037],[0.7783052090089768],11,2,134,4,568.2675168749993,,568.2557551669888,568.2675168749993,569.2518519170117,569.2518519170117,569.2563417499769,569.5209930840065,space,0.26451808301499113,None,569.5226721669897,0.40167195798130706,0.7015572079690173,570.2272134170053,570.2287146669696,570.2435205839574,570.2435205839574,570.2435205839574,571.0220585839706,500,1,[0.778302458988037],[0.7783052090089768],1,001,2025-11-11_18h23.04.141,Tutorial 7 | Intentional Binding Task,,2025.1.1,None,2025-11-11 18h23.12.441327 +0530,
0.1,1000.0,exp,135,3,11,space,0.35249595902860165,None,400,1,[0.9885079169762321],[0.9885121249826625],11,3,135,3,571.0339842499816,,571.0221861249884,571.0339842499816,572.018649375008,572.018649375008,572.0225974170025,572.3749422499677,space,0.35249595902860165,None,572.3761002089595,0.09928145899903029,0.4102024589665234,572.785450833966,572.7867640419863,572.8024549589609,572.8024549589609,572.8024549589609,573.7912157920073,400,1,[0.9885079169762321],[0.9885121249826625],1,001,2025-11-11_18h23.04.141,Tutorial 7 | Intentional Binding Task,,2025.1.1,None,2025-11-11 18h23.12.441327 +0530,
0.4,400.0,unexp,136,4,11,space,0.09010229096747935,None,100,1,[0.6775660410057753],[0.677570250001736],11,4,136,1,573.8008208340034,,573.7913464999874,573.8008208340034,574.791017666983,574.791017666983,574.791017666983,574.8874307500082,space,0.09010229096747935,None,574.8885945839575,0.4020904169883579,0.7022737920051441,575.5941662499681,575.5956685839919,575.6111563339946,575.6111563339946,575.6111563339946,576.2889628339908,100,1,[0.6775660410057753],[0.677570250001736],1,001,2025-11-11_18h23.04.141,Tutorial 7 | Intentional Binding Task,,2025.1.1,None,2025-11-11 18h23.12.441327 +0530,
0.1,1000.0,exp,137,5,11,space,0.30812195799080655,None,400,1,[1.1524208749760874],[1.1524238329729997],11,5,137,6,576.3006442089682,,576.289091292012,576.3006442089682,577.2852493749815,577.2852493749815,577.2904428750044,577.6039997499902,space,0.30812195799080655,None,577.6051912920084,0.10419762501260266,0.4146365000051446,578.0190328749595,578.0208964169724,578.0361412089551,578.0361412089551,578.0361412089551,579.1887975839782,400,1,[1.1524208749760874],[1.1524238329729997],1,001,2025-11-11_18h23.04.141,Tutorial 7 | Intentional Binding Task,,2025.1.1,None,2025-11-11 18h23.12.441327 +0530,
0.4,1000.0,exp,138,6,11,space,0.28461949998745695,None,700 ,1,[1.6830216249800287],[1.6830240829731338],11,6,138,7,579.2006354999612,,579.1889189169742,579.2006354999612,580.1852922089747,580.1852922089747,580.1902435839875,580.4750277919811,space,0.28461949998745695,None,580.4761753339553,0.41013716702582315,0.7103961670072749,581.1897655839566,581.191922041995,581.2080925419577,581.2080925419577,581.2080925419577,582.8913587499992,700 ,1,[1.6830216249800287],[1.6830240829731338],1,001,2025-11-11_18h23.04.141,Tutorial 7 | Intentional Binding Task,,2025.1.1,None,2025-11-11 18h23.12.441327 +0530,
0.7,1000.0,exp,139,7,11,space,0.9924747499753721,None,400,1,[2.2610829999903217],[2.261087791994214],11,7,139,8,582.9007917919662,,582.8914799589547,582.9007917919662,583.890479499998,583.890479499998,583.890479499998,584.8876344169839,space,0.9924747499753721,None,584.889352541999,0.7009202920016833,1.0093382920022123,585.897266083979,585.8980480000027,585.9063917089952,585.9063917089952,585.9063917089952,588.1677182919811,400,1,[2.2610829999903217],[2.261087791994214],1,001,2025-11-11_18h23.04.141,Tutorial 7 | Intentional Binding Task,,2025.1.1,None,2025-11-11 18h23.12.441327 +0530,
0.7,1000.0,exp,140,8,11,space,0.267875624995213,None,300,1,[3.197789666999597],[3.1977925000246614],11,8,140,11,588.169868041994,,588.1678477089736,588.169868041994,589.1568489999627,589.1568489999627,589.1686699999846,589.4375567499665,space,0.267875624995213,None,589.4394781669835,0.701502249983605,1.0095963749918155,590.4474652920035,590.4482668749988,590.4573771249852,590.4573771249852,590.4573771249852,593.6554094169987,300,1,[3.197789666999597],[3.1977925000246614],1,001,2025-11-11_18h23.04.141,Tutorial 7 | Intentional Binding Task,,2025.1.1,None,2025-11-11 18h23.12.441327 +0530,
0.1,400.0,unexp,141,9,11,space,0.30953420797595754,None,100,1,[1.362827958946582],[1.3628311249776743],11,9,141,0,593.6674853339791,,593.6555347089889,593.6674853339791,594.6521087089786,594.6521087089786,594.6572590419673,594.9700101669878,space,0.30953420797595754,None,594.9712096669828,0.10184704198036343,0.40309533395338804,595.376203458989,595.3775389589719,595.3922801669687,595.3922801669687,595.3922801669687,596.7553436669987,100,1,[1.362827958946582],[1.3628311249776743],1,001,2025-11-11_18h23.04.141,Tutorial 7 | Intentional Binding Task,,2025.1.1,None,2025-11-11 18h23.12.441327 +0530,
0.7,1000.0,exp,142,10,11,space,0.23557620903011411,None,400,1,[2.9320732089690864],[2.9320769169717096],11,10,142,5,596.7672269999748,,596.7554723749636,596.7672269999748,597.7520779169863,597.7520779169863,597.7561976669822,597.9902877919958,space,0.23557620903011411,None,597.9914929589722,0.6993906249990687,1.006407999957446,598.9969592089765,598.9977260419982,599.0063690419775,599.0063690419775,599.0063690419775,601.9386841669912,400,1,[2.9320732089690864],[2.9320769169717096],1,001,2025-11-11_18h23.04.141,Tutorial 7 | Intentional Binding Task,,2025.1.1,None,2025-11-11 18h23.12.441327 +0530,
0.4,1000.0,exp,143,11,11,space,0.6412620419869199,None,200,1,[1.061398249992635],[1.0614012089790776],11,11,143,10,601.950712833961,,601.9388092919835,601.950712833961,602.9352542499546,602.9352542499546,602.9394191249739,603.5873296670034,space,0.6412620419869199,None,603.5886779169668,0.4018316669971682,0.7019443750032224,604.2938202089863,604.2952690839884,604.3104205839918,604.3104205839918,604.3104205839918,605.3720542090014,200,1,[1.061398249992635],[1.0614012089790776],1,001,2025-11-11_18h23.04.141,Tutorial 7 | Intentional Binding Task,,2025.1.1,None,2025-11-11 18h23.12.441327 +0530,
0.7,1000.0,exp,144,0,12,space,0.3167939590057358,None,500,1,[0.9975760419620201],[0.9975805839640088],12,0,144,8,605.3838795420015,,605.3721803749795,605.3838795420015,606.3686544999946,606.3686544999946,606.3731753340107,606.6906059999601,space,0.3167939590057358,None,606.6918393750093,0.7111925840144977,1.0113712919992395,607.7065743340063,607.7086719169747,607.7244535000063,607.7244535000063,607.7244535000063,608.722260584007,500,1,[0.9975760419620201],[0.9975805839640088],1,001,2025-11-11_18h23.04.141,Tutorial 7 | Intentional Binding Task,,2025.1.1,None,2025-11-11 18h23.12.441327 +0530,
0.4,400.0,unexp,145,1,12,space,0.4997941249748692,None,400,1,[1.84444108302705],[1.8444437080179341],12,1,145,1,608.7338839999866,,608.7223895839998,608.7338839999866,609.7185444589704,609.7185444589704,609.7234724590089,610.2208371249726,space,0.4997941249748692,None,610.2220779999625,0.4018975830404088,0.7017640830017626,610.9271375419921,610.9286193340085,610.9439502090099,610.9439502090099,610.9439502090099,612.7886184169911,400,1,[1.84444108302705],[1.8444437080179341],1,001,2025-11-11_18h23.04.141,Tutorial 7 | Intentional Binding Task,,2025.1.1,None,2025-11-11 18h23.12.441327 +0530,
0.1,1000.0,exp,146,2,12,space,0.3398317919927649,None,800,1,[2.3956956249894574],[2.3956994999898598],12,2,146,6,612.8007050839951,,612.7887456250028,612.8007050839951,613.7854103749851,613.7854103749851,613.790578999964,614.1367702090065,space,0.3398317919927649,None,614.1379723749706,0.1017117919982411,0.40134529198985547,614.5426690419554,614.5442314170068,614.5593323339708,614.5593323339708,614.5593323339708,616.9552672089776,800,1,[2.3956956249894574],[2.3956994999898598],1,001,2025-11-11_18h23.04.141,Tutorial 7 | Intentional Binding Task,,2025.1.1,None,2025-11-11 18h23.12.441327 +0530,
0.4,1000.0,exp,147,3,12,space,0.23219220899045467,None,800,1,[2.0779522910015658],[2.0779566659475677],12,3,147,4,616.9671804590034,,616.9553941669874,616.9671804590034,617.9519437499694,617.9519437499694,617.9571181669598,618.1868371249875,space,0.23219220899045467,None,618.1884625839884,0.4021042499807663,0.702783000015188,618.8934183749952,618.8949508339865,618.9104004589608,618.9104004589608,618.9104004589608,620.9885942919645,800,1,[2.0779522910015658],[2.0779566659475677],1,001,2025-11-11_18h23.04.141,Tutorial 7 | Intentional Binding Task,,2025.1.1,None,2025-11-11 18h23.12.441327 +0530,
0.4,1000.0,exp,148,4,12,space,0.3389151669689454,None,300,1,[3.6118949580122717],[3.611897625029087],12,4,148,7,621.0006665419787,,620.9887232090114,621.0006665419787,621.9853382500005,621.9853382500005,621.9894738339935,622.3373197090114,space,0.3389151669689454,None,622.3391543339822,0.4020353329833597,0.7024338329792954,623.043920208991,623.0453552089748,623.059869708959,623.059869708959,623.059869708959,626.67200529197,300,1,[3.6118949580122717],[3.611897625029087],1,001,2025-11-11_18h23.04.141,Tutorial 7 | Intentional Binding Task,,2025.1.1,None,2025-11-11 18h23.12.441327 +0530,
0.1,1000.0,exp,149,5,12,space,1.2869937499635853,None,300 ,1,[4.747831416956615],[4.74783387494972],12,5,149,9,626.6838040419971,,626.6721299999626,626.6838040419971,627.6688425419852,627.6688425419852,627.6739594590035,628.9698001669603,space,1.2869937499635853,None,628.9707194999792,0.1025774169829674,0.40199183399090543,629.376349875005,629.3779016250046,629.3927603749908,629.3927603749908,629.3927603749908,634.140830999997,300 ,1,[4.747831416956615],[4.74783387494972],1,001,2025-11-11_18h23.04.141,Tutorial 7 | Intentional Binding Task,,2025.1.1,None,2025-11-11 18h23.12.441327 +0530,
0.7,1000.0,exp,150,6,12,space,0.2753445000271313,None,100,1,[2.708683167002164],[2.708698500005994],12,6,150,11,634.1504503340111,,634.140953458962,634.1504503340111,635.1384033749928,635.1384033749928,635.1384033749928,635.4199139999691,space,0.2753445000271313,None,635.4208481250098,0.7018143750028685,1.0017971670022234,636.4261128749931,636.4275385839865,636.4430984589853,636.4430984589853,636.4430984589853,639.152595416992,100,1,[2.708683167002164],[2.708698500005994],1,001,2025-11-11_18h23.04.141,Tutorial 7 | Intentional Binding Task,,2025.1.1,None,2025-11-11 18h23.12.441327 +0530,
0.4,1000.0,exp,151,7,12,space,0.27101245895028114,None,700,1,[1.415085916989483],[1.415091292001307],12,7,151,10,639.1545526669943,,639.1528509169584,639.1545526669943,640.1385891669779,640.1385891669779,640.1518819169723,640.4198017499875,space,0.27101245895028114,None,640.4207578339847,0.4018408330157399,0.7017154580098577,641.1258354589809,641.1271847090102,641.1424623749917,641.1424623749917,641.1424623749917,642.5577963339747,700,1,[1.415085916989483],[1.415091292001307],1,001,2025-11-11_18h23.04.141,Tutorial 7 | Intentional Binding Task,,2025.1.1,None,2025-11-11 18h23.12.441327 +0530,
0.7,1000.0,exp,152,8,12,space,0.2150269589619711,None,700,1,[0.8120067080017179],[0.8120100420201197],12,8,152,5,642.5670910420013,,642.5579247089918,642.5670910420013,643.5554935839609,643.5554935839609,643.5554935839609,643.7726657500025,space,0.2150269589619711,None,643.773619042011,0.6990352920256555,0.9988636249909177,644.7760143339983,644.7773862920003,644.7931563750026,644.7931563750026,644.7931563750026,645.605403374997,700,1,[0.8120067080017179],[0.8120100420201197],1,001,2025-11-11_18h23.04.141,Tutorial 7 | Intentional Binding Task,,2025.1.1,None,2025-11-11 18h23.12.441327 +0530,
0.7,400.0,unexp,153,9,12,space,0.20257358299568295,None,100,1,[0.7625720000360161],[0.7625749580329284],12,9,153,2,645.6172874589683,,645.605534125003,645.6172874589683,646.6018806250067,646.6018806250067,646.6051935839932,646.8059217919945,space,0.20257358299568295,None,646.8070277500083,0.6990808330010623,0.9988214580225758,647.8093505419674,647.810743250011,647.8258009589626,647.8258009589626,647.8258009589626,648.588611833984,100,1,[0.7625720000360161],[0.7625749580329284],1,001,2025-11-11_18h23.04.141,Tutorial 7 | Intentional Binding Task,,2025.1.1,None,2025-11-11 18h23.12.441327 +0530,
0.1,400.0,unexp,154,10,12,space,0.3311884159920737,None,100,1,[1.2048283749609254],[1.2048311249818653],12,10,154,0,648.6003705839976,,648.5887431249721,648.6003705839976,649.5851762089878,649.5851762089878,649.5890127919847,649.9198661670089,space,0.3311884159920737,None,649.920880791964,0.10312162496848032,0.4154028329649009,650.3355270840111,650.3364998750039,650.3525639169966,650.3525639169966,650.3525639169966,651.5576333749923,100,1,[1.2048283749609254],[1.2048311249818653],1,001,2025-11-11_18h23.04.141,Tutorial 7 | Intentional Binding Task,,2025.1.1,None,2025-11-11 18h23.12.441327 +0530,
0.1,1000.0,exp,155,11,12,space,0.29719908302649856,None,400,1,[1.7001745830057189],[1.7001772919902578],12,11,155,3,651.5672253340017,,651.5577531249728,651.5672253340017,652.5550112499623,652.5550112499623,652.5550112499623,652.8564795840066,space,0.29719908302649856,None,652.8574400839861,0.1120212500100024,0.4121484999777749,653.2731874589808,653.2746081249788,653.2902842090116,653.2902842090116,653.2902842090116,654.9907267089584,400,1,[1.7001745830057189],[1.7001772919902578],1,001,2025-11-11_18h23.04.141,Tutorial 7 | Intentional Binding Task,,2025.1.1,None,2025-11-11 18h23.12.441327 +0530,
0.7,1000.0,exp,156,0,13,space,0.3650474580354057,None,900 ,1,[3.7352039159741253],[3.7352065829909407],13,0,156,11,655.0005814169999,,654.9908484999905,655.0005814169999,655.9883089169743,655.9883089169743,655.9883089169743,656.355802874954,space,0.3650474580354057,None,656.3567498339689,0.7127418330055661,1.0127005410031416,657.3728190839756,657.3742041669902,657.3900910000084,657.3900910000084,657.3900910000084,661.1255313339643,900 ,1,[3.7352039159741253],[3.7352065829909407],1,001,2025-11-11_18h23.04.141,Tutorial 7 | Intentional Binding Task,,2025.1.1,None,2025-11-11 18h23.12.441327 +0530,
0.4,1000.0,exp,157,1,13,space,0.46983070799615234,None,300,1,[1.8456838749698363],[1.8456871249945834],13,1,157,4,661.1338548339554,,661.1256528749946,661.1338548339554,662.1233077920042,662.1233077920042,662.1233077920042,662.6040682090097,space,0.46983070799615234,None,662.6058734589606,0.4009420410147868,0.7015746660181321,663.3095590419834,663.3109898749972,663.3258909590077,663.3258909590077,663.3258909590077,665.1717979589594,300,1,[1.8456838749698363],[1.8456871249945834],1,001,2025-11-11_18h23.04.141,Tutorial 7 | Intentional Binding Task,,2025.1.1,None,2025-11-11 18h23.12.441327 +0530,
0.7,1000.0,exp,158,2,13,space,0.21449108299566433,None,200,1,[0.7853272500215098],[0.7853300829883665],13,2,158,5,665.1836922499933,,665.1719245419954,665.1836922499933,666.1685069589876,666.1685069589876,666.1733219589805,666.3871309169917,space,0.21449108299566433,None,666.3889993339544,0.7019618329941295,1.0143937079701573,667.4018865419785,667.4032412919914,667.4195644169813,667.4195644169813,667.4195644169813,668.2051278749714,200,1,[0.7853272500215098],[0.7853300829883665],1,001,2025-11-11_18h23.04.141,Tutorial 7 | Intentional Binding Task,,2025.1.1,None,2025-11-11 18h23.12.441327 +0530,
0.1,400.0,unexp,159,3,13,space,0.22704279201570898,None,700,1,[1.795081666961778],[1.7950848339824006],13,3,159,0,668.2170134169864,,668.2052560419543,668.2170134169864,669.2018018339877,669.2018018339877,669.2069621669943,669.4364520839881,space,0.22704279201570898,None,669.437618166965,0.10198162501910701,0.40270100004272535,669.8428618749604,669.8443098340067,669.8601409170078,669.8601409170078,669.8601409170078,671.6554687499884,700,1,[1.795081666961778],[1.7950848339824006],1,001,2025-11-11_18h23.04.141,Tutorial 7 | Intentional Binding Task,,2025.1.1,None,2025-11-11 18h23.12.441327 +0530,
0.7,1000.0,exp,160,4,13,space,0.22496183298062533,None,300,1,[1.7592444579931907],[1.759247249981854],13,4,160,8,671.6670247919974,,671.6555919169914,671.6670247919974,672.651795208978,672.651795208978,672.6569359169807,672.8870016249712,space,0.22496183298062533,None,672.8884640840115,0.7025976249715313,1.0017515830113553,673.8934000839945,673.8948978339904,673.9124392920057,673.9124392920057,673.9124392920057,675.6719189590076,300,1,[1.7592444579931907],[1.759247249981854],1,001,2025-11-11_18h23.04.141,Tutorial 7 | Intentional Binding Task,,2025.1.1,None,2025-11-11 18h23.12.441327 +0530,
0.1,1000.0,exp,161,5,13,space,0.23311299999477342,None,100,1,[0.7631882089772262],[0.7631907499744557],13,5,161,9,675.6837247919757,,675.6720502089593,675.6837247919757,676.6685561249615,676.6685561249615,676.6733041249681,676.9040196670103,space,0.23311299999477342,None,676.9053540839814,0.10164512501796708,0.4020230839960277,677.3101994169992,677.3116549589904,677.3273864589864,677.3273864589864,677.3273864589864,678.0907842919696,100,1,[0.7631882089772262],[0.7631907499744557],1,001,2025-11-11_18h23.04.141,Tutorial 7 | Intentional Binding Task,,2025.1.1,None,2025-11-11 18h23.12.441327 +0530,
0.4,400.0,unexp,162,6,13,space,0.5171252909931354,None,400,1,[3.014468874956947],[3.0144717499497347],13,6,162,1,678.1003267089836,,678.0909129999927,678.1003267089836,679.0850178339751,679.0850178339751,679.0899583749706,679.6072821249836,space,0.5171252909931354,None,679.6084465839667,0.41127741703530774,0.7110298330080695,680.3229878749698,680.324707333988,680.3406292499858,680.3406292499858,680.3406292499858,683.3553303339868,400,1,[3.014468874956947],[3.0144717499497347],1,001,2025-11-11_18h23.04.141,Tutorial 7 | Intentional Binding Task,,2025.1.1,None,2025-11-11 18h23.12.441327 +0530,
0.4,1000.0,exp,163,7,13,space,0.3349169999710284,None,400,1,[2.8811722499667667],[2.8811749999877065],13,7,163,7,683.3673632089631,,683.3554530419642,683.3673632089631,684.3516732919961,684.3516732919961,684.3568774169544,684.6902729169815,space,0.3349169999710284,None,684.6914400419919,0.41154637502040714,0.7114328750176355,685.4059407919995,685.4079360420001,685.4238049169653,685.4238049169653,685.4238049169653,688.3052237919765,400,1,[2.8811722499667667],[2.8811749999877065],1,001,2025-11-11_18h23.04.141,Tutorial 7 | Intentional Binding Task,,2025.1.1,None,2025-11-11 18h23.12.441327 +0530,
0.4,1000.0,exp,164,8,13,space,0.27201720903394744,None,700,1,[1.0135318749817088],[1.0135348339681514],13,8,164,10,688.3171877499553,,688.3053490419989,688.3171877499553,689.3017044590088,689.3017044590088,689.3069352919701,689.5871980419615,space,0.27201720903394744,None,689.5886279999977,0.40182445803657174,0.7020391250262037,690.2937225839705,690.2952426669654,690.3102580420091,690.3102580420091,690.3102580420091,691.3240214170073,700,1,[1.0135318749817088],[1.0135348339681514],1,001,2025-11-11_18h23.04.141,Tutorial 7 | Intentional Binding Task,,2025.1.1,None,2025-11-11 18h23.12.441327 +0530,
