reward_today,future_reward,delay,thisN,thisTrialN,thisRepN,key_resp.keys,key_resp.rt,key_resp.duration,trials.thisRepN,trials.thisTrialN,trials.thisN,trials.thisIndex,thisRow.t,notes,trial.started,fixation.started,text.started,key_resp.started,fixation.stopped,trial.stopped,trials.key_resp.keys,trials.key_resp.rt,trials.key_resp.duration,participant,session,date,expName,expVersion,psychopyVersion,frameRate,expStart,
9.0,18.0,12.0,0,0,0,t,3.0010116660268977,None,0,0,0,8,0.04630220800754614,,0.033010249986546114,0.04630220800754614,1.0100773329904769,1.0100773329904769,1.0337032079987694,4.212342082988471,t,3.0010116660268977,None,1,001,2025-10-30_09h33.10.003,Tutorial 6 | Delay Discounting Task,,2025.1.1,None,2025-10-30 09h33.17.728566 +0530,
40.0,55.0,62.0,1,1,0,t,3.7142717489914503,None,0,1,1,3,4.220586666982854,,4.215276874980191,4.220586666982854,5.204121582995867,5.204121582995867,5.2152858749905135,8.919652124983259,t,3.7142717489914503,None,1,001,2025-10-30_09h33.10.003,Tutorial 6 | Delay Discounting Task,,2025.1.1,None,2025-10-30 09h33.17.728566 +0530,
90.0,101.0,190.0,2,2,0,t,2.480546458013123,None,0,2,2,7,8.940866541990545,,8.926564332999988,8.940866541990545,9.915453541994793,9.915453541994793,9.936159375007264,12.401347250008257,t,2.480546458013123,None,1,001,2025-10-30_09h33.10.003,Tutorial 6 | Delay Discounting Task,,2025.1.1,None,2025-10-30 09h33.17.728566 +0530,
27.0,50.0,21.0,3,3,0,l,2.901947623991873,None,0,3,3,2,12.417597416992066,,12.410917375003919,12.417597416992066,13.39892362500541,13.39892362500541,13.41528487499454,16.30438666700502,l,2.901947623991873,None,1,001,2025-10-30_09h33.10.003,Tutorial 6 | Delay Discounting Task,,2025.1.1,None,2025-10-30 09h33.17.728566 +0530,
67.0,75.0,119.0,4,4,0,l,2.319706165988464,None,0,4,4,5,16.318154624983435,,16.31180199998198,16.318154624983435,17.304174541990506,17.304174541990506,17.315310332982335,19.633768542000325,l,2.319706165988464,None,1,001,2025-10-30_09h33.10.003,Tutorial 6 | Delay Discounting Task,,2025.1.1,None,2025-10-30 09h33.17.728566 +0530,
50.0,69.0,49.0,5,5,0,t,2.973583332000999,None,0,5,5,9,19.648228917008964,,19.641008916980354,19.648228917008964,20.632164832990384,20.632164832990384,20.636223624984268,23.617131250008242,t,2.973583332000999,None,1,001,2025-10-30_09h33.10.003,Tutorial 6 | Delay Discounting Task,,2025.1.1,None,2025-10-30 09h33.17.728566 +0530,
15.0,35.0,13.0,6,6,0,t,1.670398208021652,None,0,6,6,1,23.63450429198565,,23.6268546670035,23.63450429198565,24.615320749988314,24.615320749988314,24.63216504198499,26.2878692499944,t,1.670398208021652,None,1,001,2025-10-30_09h33.10.003,Tutorial 6 | Delay Discounting Task,,2025.1.1,None,2025-10-30 09h33.17.728566 +0530,
78.0,80.0,162.0,7,7,0,t,3.8819476240023505,None,0,7,7,6,26.30156129199895,,26.29461499999161,26.30156129199895,27.28745516698109,27.28745516698109,27.298562374984613,31.183798999991268,t,3.8819476240023505,None,1,001,2025-10-30_09h33.10.003,Tutorial 6 | Delay Discounting Task,,2025.1.1,None,2025-10-30 09h33.17.728566 +0530,
49.0,60.0,89.0,8,8,0,t,3.635774082998978,None,0,8,8,4,31.198053416999755,,31.190445999993244,31.198053416999755,32.18224887500401,32.18224887500401,32.186729749984806,35.820467416982865,t,3.635774082998978,None,1,001,2025-10-30_09h33.10.003,Tutorial 6 | Delay Discounting Task,,2025.1.1,None,2025-10-30 09h33.17.728566 +0530,
11.0,30.0,7.0,9,9,0,l,1.459461165999528,None,0,9,9,0,35.834862957999576,,35.82697929200367,35.834862957999576,36.8151815419842,36.8151815419842,36.832079124986194,38.28363583298051,l,1.459461165999528,None,1,001,2025-10-30_09h33.10.003,Tutorial 6 | Delay Discounting Task,,2025.1.1,None,2025-10-30 09h33.17.728566 +0530,
27.0,50.0,21.0,10,0,1,l,1.596717374981381,None,1,0,10,2,38.30004099998041,,38.291872999980114,38.30004099998041,39.28188162500737,39.28188162500737,39.298595917003695,40.883842332987115,l,1.596717374981381,None,1,001,2025-10-30_09h33.10.003,Tutorial 6 | Delay Discounting Task,,2025.1.1,None,2025-10-30 09h33.17.728566 +0530,
11.0,30.0,7.0,11,1,1,l,1.6475101659889333,None,1,1,11,0,40.898395166994305,,40.890391124994494,40.898395166994305,41.88201149998349,41.88201149998349,41.885871082980884,43.53374349998194,l,1.6475101659889333,None,1,001,2025-10-30_09h33.10.003,Tutorial 6 | Delay Discounting Task,,2025.1.1,None,2025-10-30 09h33.17.728566 +0530,
50.0,69.0,49.0,12,2,1,t,3.5778474569960963,None,1,2,12,9,43.548807582992595,,43.54105183298816,43.548807582992595,44.532108124985825,44.532108124985825,44.53664445798495,48.11704683298012,t,3.5778474569960963,None,1,001,2025-10-30_09h33.10.003,Tutorial 6 | Delay Discounting Task,,2025.1.1,None,2025-10-30 09h33.17.728566 +0530,
67.0,75.0,119.0,13,3,1,t,1.5792531250044703,None,1,3,13,5,48.13010083299014,,48.12333908298751,48.13010083299014,49.11531404199195,49.11531404199195,49.11964833299862,50.700913916982245,t,1.5792531250044703,None,1,001,2025-10-30_09h33.10.003,Tutorial 6 | Delay Discounting Task,,2025.1.1,None,2025-10-30 09h33.17.728566 +0530,
40.0,55.0,62.0,14,4,1,t,1.1738990409940016,None,1,4,14,3,50.71336841699667,,50.70824599999469,50.71336841699667,51.69850383300218,51.69850383300218,51.70283254198148,52.88367233300232,t,1.1738990409940016,None,1,001,2025-10-30_09h33.10.003,Tutorial 6 | Delay Discounting Task,,2025.1.1,None,2025-10-30 09h33.17.728566 +0530,
78.0,80.0,162.0,15,5,1,t,1.2511709579848684,None,1,5,15,6,52.89824237499852,,52.89110179198906,52.89824237499852,53.88218600000255,53.88218600000255,53.88680341700092,55.13755391698214,t,1.2511709579848684,None,1,001,2025-10-30_09h33.10.003,Tutorial 6 | Delay Discounting Task,,2025.1.1,None,2025-10-30 09h33.17.728566 +0530,
90.0,101.0,190.0,16,6,1,t,1.3479632080125157,None,1,6,16,7,55.165434416994685,,55.14335941700847,55.165434416994685,56.13743637499283,56.13743637499283,56.15166750000208,57.48738729199977,t,1.3479632080125157,None,1,001,2025-10-30_09h33.10.003,Tutorial 6 | Delay Discounting Task,,2025.1.1,None,2025-10-30 09h33.17.728566 +0530,
9.0,18.0,12.0,17,7,1,t,1.1770448749884963,None,1,7,17,8,57.501471458002925,,57.49369987499085,57.501471458002925,58.488280082994606,58.488280082994606,58.4985767499893,59.66760849999264,t,1.1770448749884963,None,1,001,2025-10-30_09h33.10.003,Tutorial 6 | Delay Discounting Task,,2025.1.1,None,2025-10-30 09h33.17.728566 +0530,
15.0,35.0,13.0,18,8,1,l,3.085169541009236,None,1,8,18,1,59.681638167006895,,59.674739624984795,59.681638167006895,60.66513995800051,60.66513995800051,60.66898970800685,63.754175457987,l,3.085169541009236,None,1,001,2025-10-30_09h33.10.003,Tutorial 6 | Delay Discounting Task,,2025.1.1,None,2025-10-30 09h33.17.728566 +0530,
49.0,60.0,89.0,19,9,1,t,1.5402973319869488,None,1,9,19,4,63.76778579200618,,63.76042662499822,63.76778579200618,64.75401079200674,64.75401079200674,64.76519908299088,66.30031145800604,t,1.5402973319869488,None,1,001,2025-10-30_09h33.10.003,Tutorial 6 | Delay Discounting Task,,2025.1.1,None,2025-10-30 09h33.17.728566 +0530,
15.0,35.0,13.0,20,0,2,t,1.2814487070136238,None,2,0,20,1,66.31509358299081,,66.30820420800592,66.31509358299081,67.2986264170031,67.2986264170031,67.30281837499933,68.58325191700715,t,1.2814487070136238,None,1,001,2025-10-30_09h33.10.003,Tutorial 6 | Delay Discounting Task,,2025.1.1,None,2025-10-30 09h33.17.728566 +0530,
40.0,55.0,62.0,21,1,2,t,0.936332498997217,None,2,1,21,3,68.5962869169889,,68.58951137500117,68.5962869169889,69.5821345000004,69.5821345000004,69.58679008300533,70.51985483299359,t,0.936332498997217,None,1,001,2025-10-30_09h33.10.003,Tutorial 6 | Delay Discounting Task,,2025.1.1,None,2025-10-30 09h33.17.728566 +0530,
50.0,69.0,49.0,22,2,2,t,1.526493790996028,None,2,2,22,9,70.53445433298475,,70.52624237499549,70.53445433298475,71.52055679200566,71.52055679200566,71.53212200000416,73.05045820798841,t,1.526493790996028,None,1,001,2025-10-30_09h33.10.003,Tutorial 6 | Delay Discounting Task,,2025.1.1,None,2025-10-30 09h33.17.728566 +0530,
78.0,80.0,162.0,23,3,2,t,0.7253629569895566,None,2,3,23,6,73.06486708298326,,73.05743866699049,73.06486708298326,74.04859999998007,74.04859999998007,74.0523207919905,74.7836609169899,t,0.7253629569895566,None,1,001,2025-10-30_09h33.10.003,Tutorial 6 | Delay Discounting Task,,2025.1.1,None,2025-10-30 09h33.17.728566 +0530,
90.0,101.0,190.0,24,4,2,t,1.623954873997718,None,2,4,24,7,74.79768983300892,,74.79060720800771,74.79768983300892,75.7820507499855,75.7820507499855,75.78640979199554,77.41664812498493,t,1.623954873997718,None,1,001,2025-10-30_09h33.10.003,Tutorial 6 | Delay Discounting Task,,2025.1.1,None,2025-10-30 09h33.17.728566 +0530,
27.0,50.0,21.0,25,5,2,t,0.983758874994237,None,2,5,25,2,77.4307302919915,,77.4238561670063,77.4307302919915,78.41519062500447,78.41519062500447,78.41945804198622,79.4040044999856,t,0.983758874994237,None,1,001,2025-10-30_09h33.10.003,Tutorial 6 | Delay Discounting Task,,2025.1.1,None,2025-10-30 09h33.17.728566 +0530,
11.0,30.0,7.0,26,6,2,t,0.7452848739922047,None,2,6,26,0,79.41794729200774,,79.41023154198774,79.41794729200774,80.40461470800801,80.40461470800801,80.41506845800905,81.1536799169844,t,0.7452848739922047,None,1,001,2025-10-30_09h33.10.003,Tutorial 6 | Delay Discounting Task,,2025.1.1,None,2025-10-30 09h33.17.728566 +0530,
67.0,75.0,119.0,27,7,2,l,1.3211594159947708,None,2,7,27,5,81.18215995799983,,81.15988970798207,81.18215995799983,82.14864083298016,82.14864083298016,82.17024333300651,83.48420937499031,l,1.3211594159947708,None,1,001,2025-10-30_09h33.10.003,Tutorial 6 | Delay Discounting Task,,2025.1.1,None,2025-10-30 09h33.17.728566 +0530,
49.0,60.0,89.0,28,8,2,t,0.8997807080158964,None,2,8,28,4,83.49609733300167,,83.49094945800607,83.49609733300167,84.48200645798352,84.48200645798352,84.48615791698103,85.38414541698876,t,0.8997807080158964,None,1,001,2025-10-30_09h33.10.003,Tutorial 6 | Delay Discounting Task,,2025.1.1,None,2025-10-30 09h33.17.728566 +0530,
9.0,18.0,12.0,29,9,2,l,1.1297792079858482,None,2,9,29,8,85.39621470798738,,85.3901790829841,85.39621470798738,86.38189654200687,86.38189654200687,86.38618054200197,87.51687895800569,l,1.1297792079858482,None,1,001,2025-10-30_09h33.10.003,Tutorial 6 | Delay Discounting Task,,2025.1.1,None,2025-10-30 09h33.17.728566 +0530,
15.0,35.0,13.0,30,0,3,t,1.8585876249999274,None,3,0,30,1,87.53151787500246,,87.52254908299074,87.53151787500246,88.51524020798388,88.51524020798388,88.51934204198187,90.3832964579924,t,1.8585876249999274,None,1,001,2025-10-30_09h33.10.003,Tutorial 6 | Delay Discounting Task,,2025.1.1,None,2025-10-30 09h33.17.728566 +0530,
67.0,75.0,119.0,31,1,3,l,1.384603957994841,None,3,1,31,5,90.3984674999956,,90.38964958299766,90.3984674999956,91.38199883300695,91.38199883300695,91.3862964999862,92.7699631669966,l,1.384603957994841,None,1,001,2025-10-30_09h33.10.003,Tutorial 6 | Delay Discounting Task,,2025.1.1,None,2025-10-30 09h33.17.728566 +0530,
49.0,60.0,89.0,32,2,3,t,1.0761952490138356,None,3,2,32,4,92.78472829199745,,92.7765763750067,92.78472829199745,93.76535679199151,93.76535679199151,93.78197462498792,94.85046208300628,t,1.0761952490138356,None,1,001,2025-10-30_09h33.10.003,Tutorial 6 | Delay Discounting Task,,2025.1.1,None,2025-10-30 09h33.17.728566 +0530,
50.0,69.0,49.0,33,3,3,l,1.5108039990009274,None,3,3,33,9,94.86281033299747,,94.85680587499519,94.86281033299747,95.84869645800791,95.84869645800791,95.85313870798564,97.36698683298891,l,1.5108039990009274,None,1,001,2025-10-30_09h33.10.003,Tutorial 6 | Delay Discounting Task,,2025.1.1,None,2025-10-30 09h33.17.728566 +0530,
11.0,30.0,7.0,34,4,3,t,0.9513553330034483,None,3,4,34,0,97.38060862498241,,97.37357799999882,97.38060862498241,98.36512912498438,98.36512912498438,98.36945920798462,99.32042370800627,t,0.9513553330034483,None,1,001,2025-10-30_09h33.10.003,Tutorial 6 | Delay Discounting Task,,2025.1.1,None,2025-10-30 09h33.17.728566 +0530,
90.0,101.0,190.0,35,5,3,t,2.220369250018848,None,3,5,35,7,99.33472858299501,,99.32788458300638,99.33472858299501,100.31990987499012,100.31990987499012,100.33192666698596,102.55027400000836,t,2.220369250018848,None,1,001,2025-10-30_09h33.10.003,Tutorial 6 | Delay Discounting Task,,2025.1.1,None,2025-10-30 09h33.17.728566 +0530,
40.0,55.0,62.0,36,6,3,t,1.3906792080088053,None,3,6,36,3,102.5640325419954,,102.55666224999004,102.5640325419954,103.54864887500298,103.54864887500298,103.5526915829978,104.95023608300835,t,1.3906792080088053,None,1,001,2025-10-30_09h33.10.003,Tutorial 6 | Delay Discounting Task,,2025.1.1,None,2025-10-30 09h33.17.728566 +0530,
9.0,18.0,12.0,37,7,3,t,0.6597725829924457,None,3,7,37,8,104.96478145799483,,104.95714424998732,104.96478145799483,105.9486068749975,105.9486068749975,105.95302779198391,106.61704216699582,t,0.6597725829924457,None,1,001,2025-10-30_09h33.10.003,Tutorial 6 | Delay Discounting Task,,2025.1.1,None,2025-10-30 09h33.17.728566 +0530,
27.0,50.0,21.0,38,8,3,t,1.0170365830126684,None,3,8,38,2,106.63157441699877,,106.62407649998204,106.63157441699877,107.61529620800866,107.61529620800866,107.61909304198343,108.63697370799491,t,1.0170365830126684,None,1,001,2025-10-30_09h33.10.003,Tutorial 6 | Delay Discounting Task,,2025.1.1,None,2025-10-30 09h33.17.728566 +0530,
78.0,80.0,162.0,39,9,3,t,1.1918272909824736,None,3,9,39,6,108.6513961669989,,108.64335366699379,108.6513961669989,109.63847804200486,109.63847804200486,109.64856970799156,110.83343470800901,t,1.1918272909824736,None,1,001,2025-10-30_09h33.10.003,Tutorial 6 | Delay Discounting Task,,2025.1.1,None,2025-10-30 09h33.17.728566 +0530,
15.0,35.0,13.0,40,0,4,l,0.9189211239863653,None,4,0,40,1,110.84679924999364,,110.84030458299094,110.84679924999364,111.83219579199795,111.83219579199795,111.83681920799427,112.75429816698306,l,0.9189211239863653,None,1,001,2025-10-30_09h33.10.003,Tutorial 6 | Delay Discounting Task,,2025.1.1,None,2025-10-30 09h33.17.728566 +0530,
50.0,69.0,49.0,41,1,4,l,1.0508911240031011,None,4,1,41,9,112.76815258298302,,112.76056208298542,112.76815258298302,113.75430241698632,113.75430241698632,113.76528950000647,114.81682400000864,l,1.0508911240031011,None,1,001,2025-10-30_09h33.10.003,Tutorial 6 | Delay Discounting Task,,2025.1.1,None,2025-10-30 09h33.17.728566 +0530,
9.0,18.0,12.0,42,2,4,l,1.7888415829802398,None,4,2,42,8,114.83038687499356,,114.82363758300198,114.83038687499356,115.81525595800485,115.81525595800485,115.81933166700765,117.61710833298275,l,1.7888415829802398,None,1,001,2025-10-30_09h33.10.003,Tutorial 6 | Delay Discounting Task,,2025.1.1,None,2025-10-30 09h33.17.728566 +0530,
27.0,50.0,21.0,43,3,4,l,1.5399712910002563,None,4,3,43,2,117.63161725000828,,117.6244568330003,117.63161725000828,118.61511737498222,118.61511737498222,118.61891958300839,120.16681708299438,l,1.5399712910002563,None,1,001,2025-10-30_09h33.10.003,Tutorial 6 | Delay Discounting Task,,2025.1.1,None,2025-10-30 09h33.17.728566 +0530,
90.0,101.0,190.0,44,4,4,l,1.106759249989409,None,4,4,44,7,120.18092537499615,,120.17337112498353,120.18092537499615,121.16515195800457,121.16515195800457,121.16960999998264,122.28359945799457,l,1.106759249989409,None,1,001,2025-10-30_09h33.10.003,Tutorial 6 | Delay Discounting Task,,2025.1.1,None,2025-10-30 09h33.17.728566 +0530,
67.0,75.0,119.0,45,5,4,l,0.9411256249877624,None,4,5,45,5,122.2978968329844,,122.2908678749809,122.2978968329844,123.28184458299074,123.28184458299074,123.28572629200062,124.23314945798484,l,0.9411256249877624,None,1,001,2025-10-30_09h33.10.003,Tutorial 6 | Delay Discounting Task,,2025.1.1,None,2025-10-30 09h33.17.728566 +0530,
40.0,55.0,62.0,46,6,4,t,2.512941832013894,None,4,6,46,3,124.24662374999025,,124.23949845798779,124.24662374999025,125.23201320800581,125.23201320800581,125.23720670799958,127.75019925000379,t,2.512941832013894,None,1,001,2025-10-30_09h33.10.003,Tutorial 6 | Delay Discounting Task,,2025.1.1,None,2025-10-30 09h33.17.728566 +0530,
11.0,30.0,7.0,47,7,4,l,0.6915009999938775,None,4,7,47,0,127.76391383298323,,127.75674300000537,127.76391383298323,128.7483922499814,128.7483922499814,128.75225562500418,129.4501302499848,l,0.6915009999938775,None,1,001,2025-10-30_09h33.10.003,Tutorial 6 | Delay Discounting Task,,2025.1.1,None,2025-10-30 09h33.17.728566 +0530,
49.0,60.0,89.0,48,8,4,l,1.0056604990095366,None,4,8,48,4,129.46451516699744,,129.45723662499222,129.46451516699744,130.4485012079822,130.4485012079822,130.4529767500062,131.46693841699744,l,1.0056604990095366,None,1,001,2025-10-30_09h33.10.003,Tutorial 6 | Delay Discounting Task,,2025.1.1,None,2025-10-30 09h33.17.728566 +0530,
78.0,80.0,162.0,49,9,4,l,0.6334649159980472,None,4,9,49,6,131.48086837498704,,131.4738008749846,131.48086837498704,132.46528154198313,132.46528154198313,132.46970149999834,133.10431920798146,l,0.6334649159980472,None,1,001,2025-10-30_09h33.10.003,Tutorial 6 | Delay Discounting Task,,2025.1.1,None,2025-10-30 09h33.17.728566 +0530,
11.0,30.0,7.0,50,0,5,l,1.5448117069900036,None,5,0,50,0,133.11828791699372,,133.11158633299056,133.11828791699372,134.10480929198093,134.10480929198093,134.1150477080082,135.65290087499307,l,1.5448117069900036,None,1,001,2025-10-30_09h33.10.003,Tutorial 6 | Delay Discounting Task,,2025.1.1,None,2025-10-30 09h33.17.728566 +0530,
27.0,50.0,21.0,51,1,5,l,1.273120123980334,None,5,1,51,2,135.6676299170067,,135.65940029200283,135.6676299170067,136.6484469579882,136.6484469579882,136.66526316700038,137.93354691698914,l,1.273120123980334,None,1,001,2025-10-30_09h33.10.003,Tutorial 6 | Delay Discounting Task,,2025.1.1,None,2025-10-30 09h33.17.728566 +0530,
90.0,101.0,190.0,52,2,5,l,0.7225607910077088,None,5,2,52,7,137.94802149999305,,137.94059974999982,137.94802149999305,138.93199824998737,138.93199824998737,138.93620341698988,139.66682445799233,l,0.7225607910077088,None,1,001,2025-10-30_09h33.10.003,Tutorial 6 | Delay Discounting Task,,2025.1.1,None,2025-10-30 09h33.17.728566 +0530,
9.0,18.0,12.0,53,3,5,l,0.573367416014662,None,5,3,53,8,139.68130691698752,,139.67393200000515,139.68130691698752,140.66530645798775,140.66530645798775,140.6706847079913,141.25013333300012,l,0.573367416014662,None,1,001,2025-10-30_09h33.10.003,Tutorial 6 | Delay Discounting Task,,2025.1.1,None,2025-10-30 09h33.17.728566 +0530,
50.0,69.0,49.0,54,4,5,l,1.1171874990104698,None,5,4,54,9,141.26417920799577,,141.25700870799483,141.26417920799577,142.24833841700456,142.24833841700456,142.25254933300312,143.37089329198352,l,1.1171874990104698,None,1,001,2025-10-30_09h33.10.003,Tutorial 6 | Delay Discounting Task,,2025.1.1,None,2025-10-30 09h33.17.728566 +0530,
15.0,35.0,13.0,55,5,5,l,0.7550986249989364,None,5,5,55,1,143.38474741700338,,143.37863349998952,143.38474741700338,144.371188582998,144.371188582998,144.38189091699314,145.13323945799493,l,0.7550986249989364,None,1,001,2025-10-30_09h33.10.003,Tutorial 6 | Delay Discounting Task,,2025.1.1,None,2025-10-30 09h33.17.728566 +0530,
40.0,55.0,62.0,56,6,5,l,1.526687873993069,None,5,6,56,3,145.1461143750057,,145.13952299999073,145.1461143750057,146.131770374981,146.131770374981,146.1358452079876,147.6666035829985,l,1.526687873993069,None,1,001,2025-10-30_09h33.10.003,Tutorial 6 | Delay Discounting Task,,2025.1.1,None,2025-10-30 09h33.17.728566 +0530,
49.0,60.0,89.0,57,7,5,l,1.5799821659747977,None,5,7,57,4,147.68005466699833,,147.67291995798587,147.68005466699833,148.66530204200535,148.66530204200535,148.67071449998184,150.25035758299055,l,1.5799821659747977,None,1,001,2025-10-30_09h33.10.003,Tutorial 6 | Delay Discounting Task,,2025.1.1,None,2025-10-30 09h33.17.728566 +0530,
78.0,80.0,162.0,58,8,5,l,1.1206251660187263,None,5,8,58,6,150.26470537498244,,150.25743587498437,150.26470537498244,151.24865908300853,151.24865908300853,151.2534305829904,152.38478466699598,l,1.1206251660187263,None,1,001,2025-10-30_09h33.10.003,Tutorial 6 | Delay Discounting Task,,2025.1.1,None,2025-10-30 09h33.17.728566 +0530,
67.0,75.0,119.0,59,9,5,l,2.411608291004086,None,5,9,59,5,152.3997947500029,,152.39130012498936,152.3997947500029,153.381729582994,153.381729582994,153.3984236670076,155.80001370800892,l,2.411608291004086,None,1,001,2025-10-30_09h33.10.003,Tutorial 6 | Delay Discounting Task,,2025.1.1,None,2025-10-30 09h33.17.728566 +0530,
78.0,80.0,162.0,60,0,6,t,1.4660808740009088,None,6,0,60,6,155.81454945798032,,155.80754112498835,155.81454945798032,156.79844712498016,156.79844712498016,156.8025822500058,158.26719720798428,t,1.4660808740009088,None,1,001,2025-10-30_09h33.10.003,Tutorial 6 | Delay Discounting Task,,2025.1.1,None,2025-10-30 09h33.17.728566 +0530,
67.0,75.0,119.0,61,1,6,t,1.3031011660059448,None,6,1,61,5,158.28216854200582,,158.27458004199434,158.28216854200582,159.26517962498474,159.26517962498474,159.27020079200156,160.57045674999245,t,1.3031011660059448,None,1,001,2025-10-30_09h33.10.003,Tutorial 6 | Delay Discounting Task,,2025.1.1,None,2025-10-30 09h33.17.728566 +0530,
15.0,35.0,13.0,62,2,6,t,1.4046390410221647,None,6,2,62,1,160.58468270799494,,160.57700154199847,160.58468270799494,161.57053195798653,161.57053195798653,161.58169329198427,162.9835432920081,t,1.4046390410221647,None,1,001,2025-10-30_09h33.10.003,Tutorial 6 | Delay Discounting Task,,2025.1.1,None,2025-10-30 09h33.17.728566 +0530,
49.0,60.0,89.0,63,3,6,t,1.0406531660119072,None,6,3,63,4,162.99851983299595,,162.99073575000511,162.99851983299595,163.981767958001,163.981767958001,163.98624145798385,165.0343993330025,t,1.0406531660119072,None,1,001,2025-10-30_09h33.10.003,Tutorial 6 | Delay Discounting Task,,2025.1.1,None,2025-10-30 09h33.17.728566 +0530,
50.0,69.0,49.0,64,4,6,t,1.606258207000792,None,6,4,64,9,165.04958416699083,,165.0416475829843,165.04958416699083,166.03178220798145,166.03178220798145,166.04858450000756,167.6507364169811,t,1.606258207000792,None,1,001,2025-10-30_09h33.10.003,Tutorial 6 | Delay Discounting Task,,2025.1.1,None,2025-10-30 09h33.17.728566 +0530,
27.0,50.0,21.0,65,5,6,l,1.2464010829862673,None,6,5,65,2,167.66354354200303,,167.65772175000166,167.66354354200303,168.64865337498486,168.64865337498486,168.65362733299844,169.90022991699516,l,1.2464010829862673,None,1,001,2025-10-30_09h33.10.003,Tutorial 6 | Delay Discounting Task,,2025.1.1,None,2025-10-30 09h33.17.728566 +0530,
40.0,55.0,62.0,66,6,6,l,1.1765677490038797,None,6,6,66,3,169.9143278329866,,169.90695008300827,169.9143278329866,170.89847245800775,170.89847245800775,170.90241329200217,172.08401333299116,l,1.1765677490038797,None,1,001,2025-10-30_09h33.10.003,Tutorial 6 | Delay Discounting Task,,2025.1.1,None,2025-10-30 09h33.17.728566 +0530,
9.0,18.0,12.0,67,7,6,t,1.082241583004361,None,6,7,67,8,172.09584712499054,,172.09070999998949,172.09584712499054,173.08167595800478,173.08167595800478,173.08597470799577,174.16680849998374,t,1.082241583004361,None,1,001,2025-10-30_09h33.10.003,Tutorial 6 | Delay Discounting Task,,2025.1.1,None,2025-10-30 09h33.17.728566 +0530,
11.0,30.0,7.0,68,8,6,t,1.051543915993534,None,6,8,68,0,174.18029891699553,,174.1731997919851,174.18029891699553,175.16527908298303,175.16527908298303,175.1695961249934,176.21991912499652,t,1.051543915993534,None,1,001,2025-10-30_09h33.10.003,Tutorial 6 | Delay Discounting Task,,2025.1.1,None,2025-10-30 09h33.17.728566 +0530,
90.0,101.0,190.0,69,9,6,t,0.975221665983554,None,6,9,69,7,176.23467599999276,,176.2266345829994,176.23467599999276,177.22064174999832,177.22064174999832,177.2318481669936,178.20013045798987,t,0.975221665983554,None,1,001,2025-10-30_09h33.10.003,Tutorial 6 | Delay Discounting Task,,2025.1.1,None,2025-10-30 09h33.17.728566 +0530,
11.0,30.0,7.0,70,0,7,t,1.128436874016188,None,7,0,70,0,178.21468716699746,,178.2077118330053,178.21468716699746,179.19838795799296,179.19838795799296,179.20233400000143,180.33422895800322,t,1.128436874016188,None,1,001,2025-10-30_09h33.10.003,Tutorial 6 | Delay Discounting Task,,2025.1.1,None,2025-10-30 09h33.17.728566 +0530,
50.0,69.0,49.0,71,1,7,t,0.949909082002705,None,7,1,71,9,180.3469679169939,,180.34060249998583,180.3469679169939,181.3317833750043,181.3317833750043,181.33628466699156,182.28364070798852,t,0.949909082002705,None,1,001,2025-10-30_09h33.10.003,Tutorial 6 | Delay Discounting Task,,2025.1.1,None,2025-10-30 09h33.17.728566 +0530,
15.0,35.0,13.0,72,2,7,t,0.5461379579792265,None,7,2,72,1,182.29719124999247,,182.2902584580006,182.29719124999247,183.2816570829891,183.2816570829891,183.28556970800855,183.83320720799384,t,0.5461379579792265,None,1,001,2025-10-30_09h33.10.003,Tutorial 6 | Delay Discounting Task,,2025.1.1,None,2025-10-30 09h33.17.728566 +0530,
90.0,101.0,190.0,73,3,7,t,3.175938958011102,None,7,3,73,7,183.8466020829801,,183.83972466699197,183.8466020829801,184.8316992080072,184.8316992080072,184.83609237498604,188.01660920798895,t,3.175938958011102,None,1,001,2025-10-30_09h33.10.003,Tutorial 6 | Delay Discounting Task,,2025.1.1,None,2025-10-30 09h33.17.728566 +0530,
78.0,80.0,162.0,74,4,7,t,0.5575443329871632,None,7,4,74,6,188.03182954198564,,188.02335545798996,188.03182954198564,189.0151219999825,189.0151219999825,189.01922729198122,189.5840150419972,t,0.5575443329871632,None,1,001,2025-10-30_09h33.10.003,Tutorial 6 | Delay Discounting Task,,2025.1.1,None,2025-10-30 09h33.17.728566 +0530,
40.0,55.0,62.0,75,5,7,t,0.4449972069996875,None,7,5,75,3,189.59784204198513,,189.5922112079861,189.59784204198513,190.58164150000084,190.58164150000084,190.5859360419854,191.03380912498687,t,0.4449972069996875,None,1,001,2025-10-30_09h33.10.003,Tutorial 6 | Delay Discounting Task,,2025.1.1,None,2025-10-30 09h33.17.728566 +0530,
27.0,50.0,21.0,76,6,7,l,0.41278845799388364,None,7,6,76,2,191.04597695800476,,191.04025941700093,191.04597695800476,192.03179616699344,192.03179616699344,192.03583574999357,192.44999550000648,l,0.41278845799388364,None,1,001,2025-10-30_09h33.10.003,Tutorial 6 | Delay Discounting Task,,2025.1.1,None,2025-10-30 09h33.17.728566 +0530,
67.0,75.0,119.0,77,7,7,l,0.6669767080165911,None,7,7,77,5,192.46416350000072,,192.45691433298634,192.46416350000072,193.44853620798676,193.44853620798676,193.4535358749854,194.1208818749874,l,0.6669767080165911,None,1,001,2025-10-30_09h33.10.003,Tutorial 6 | Delay Discounting Task,,2025.1.1,None,2025-10-30 09h33.17.728566 +0530,
9.0,18.0,12.0,78,8,7,l,2.4852098330156878,None,7,8,78,8,194.13460024999222,,194.1271415000083,194.13460024999222,195.11923645800562,195.11923645800562,195.13184145800187,197.6168373329856,l,2.4852098330156878,None,1,001,2025-10-30_09h33.10.003,Tutorial 6 | Delay Discounting Task,,2025.1.1,None,2025-10-30 09h33.17.728566 +0530,
49.0,60.0,89.0,79,9,7,l,1.2520766250090674,None,7,9,79,4,197.63034674999653,,197.62345308298245,197.63034674999653,198.6152699579834,198.6152699579834,198.62113891699119,199.87031891700462,l,1.2520766250090674,None,1,001,2025-10-30_09h33.10.003,Tutorial 6 | Delay Discounting Task,,2025.1.1,None,2025-10-30 09h33.17.728566 +0530,
15.0,35.0,13.0,80,0,8,l,1.0141496660071425,None,8,0,80,1,199.8844500829873,,199.8777889169869,199.8844500829873,200.87122475000797,200.87122475000797,200.88165941700572,201.8873129579879,l,1.0141496660071425,None,1,001,2025-10-30_09h33.10.003,Tutorial 6 | Delay Discounting Task,,2025.1.1,None,2025-10-30 09h33.17.728566 +0530,
49.0,60.0,89.0,81,1,8,l,0.9672197909967508,None,8,1,81,4,201.9012815830065,,201.89351349999197,201.9012815830065,202.88712029199814,202.88712029199814,202.89855108299525,203.8667867500044,l,0.9672197909967508,None,1,001,2025-10-30_09h33.10.003,Tutorial 6 | Delay Discounting Task,,2025.1.1,None,2025-10-30 09h33.17.728566 +0530,
11.0,30.0,7.0,82,2,8,l,0.8491948329901788,None,8,2,82,0,203.88055258299573,,203.87346883298596,203.88055258299573,204.8650689579954,204.8650689579954,204.86894312498043,205.7166730829922,l,0.8491948329901788,None,1,001,2025-10-30_09h33.10.003,Tutorial 6 | Delay Discounting Task,,2025.1.1,None,2025-10-30 09h33.17.728566 +0530,
78.0,80.0,162.0,83,3,8,l,1.4422813749988563,None,8,3,83,6,205.73086904198863,,205.72374275000766,205.73086904198863,206.71502504200907,206.71502504200907,206.71855433299788,208.16697983298218,l,1.4422813749988563,None,1,001,2025-10-30_09h33.10.003,Tutorial 6 | Delay Discounting Task,,2025.1.1,None,2025-10-30 09h33.17.728566 +0530,
40.0,55.0,62.0,84,4,8,l,1.370877666020533,None,8,4,84,3,208.1812328749802,,208.17403837500024,208.1812328749802,209.16519524998148,209.16519524998148,209.17034341700491,210.5501037919894,l,1.370877666020533,None,1,001,2025-10-30_09h33.10.003,Tutorial 6 | Delay Discounting Task,,2025.1.1,None,2025-10-30 09h33.17.728566 +0530,
9.0,18.0,12.0,85,5,8,l,0.8459221660159528,None,8,5,85,8,210.5648662080057,,210.557772708009,210.5648662080057,211.5482822920021,211.5482822920021,211.5521508329839,212.40015349999885,l,0.8459221660159528,None,1,001,2025-10-30_09h33.10.003,Tutorial 6 | Delay Discounting Task,,2025.1.1,None,2025-10-30 09h33.17.728566 +0530,
90.0,101.0,190.0,86,6,8,t,1.4916500819963403,None,8,6,86,7,212.4137219999975,,212.40653400000883,212.4137219999975,213.39838504200452,213.39838504200452,213.4022576249845,214.9000965830055,t,1.4916500819963403,None,1,001,2025-10-30_09h33.10.003,Tutorial 6 | Delay Discounting Task,,2025.1.1,None,2025-10-30 09h33.17.728566 +0530,
27.0,50.0,21.0,87,7,8,t,1.19469104098971,None,8,7,87,2,214.91429533300106,,214.90698699999484,214.91429533300106,215.89833420800278,215.89833420800278,215.9024202080036,217.1000920420047,t,1.19469104098971,None,1,001,2025-10-30_09h33.10.003,Tutorial 6 | Delay Discounting Task,,2025.1.1,None,2025-10-30 09h33.17.728566 +0530,
67.0,75.0,119.0,88,8,8,l,1.1236492499883752,None,8,8,88,5,217.11500975000672,,217.1067560829979,217.11500975000672,218.09829212498153,218.09829212498153,218.10261712499778,219.233446541999,l,1.1236492499883752,None,1,001,2025-10-30_09h33.10.003,Tutorial 6 | Delay Discounting Task,,2025.1.1,None,2025-10-30 09h33.17.728566 +0530,
50.0,69.0,49.0,89,9,8,t,0.9219286660081707,None,8,9,89,9,219.2483675830008,,219.24054908298422,219.2483675830008,220.231915167009,220.231915167009,220.2372932919825,221.16709795800853,t,0.9219286660081707,None,1,001,2025-10-30_09h33.10.003,Tutorial 6 | Delay Discounting Task,,2025.1.1,None,2025-10-30 09h33.17.728566 +0530,
49.0,60.0,89.0,90,0,9,t,1.2216301239968743,None,9,0,90,4,221.18298941699322,,221.17558145799558,221.18298941699322,222.16516137498547,222.16516137498547,222.18155712500447,223.4001819579862,t,1.2216301239968743,None,1,001,2025-10-30_09h33.10.003,Tutorial 6 | Delay Discounting Task,,2025.1.1,None,2025-10-30 09h33.17.728566 +0530,
11.0,30.0,7.0,91,1,9,t,2.209474916016916,None,9,1,91,0,223.41446050000377,,223.4065399169922,223.41446050000377,224.3983907919901,224.3983907919901,224.40245387499453,226.6167272499879,t,2.209474916016916,None,1,001,2025-10-30_09h33.10.003,Tutorial 6 | Delay Discounting Task,,2025.1.1,None,2025-10-30 09h33.17.728566 +0530,
90.0,101.0,190.0,92,2,9,t,1.009872874012217,None,9,2,92,7,226.631414375006,,226.6236384169897,226.631414375006,227.61491616698913,227.61491616698913,227.6184828330006,228.63313545798883,t,1.009872874012217,None,1,001,2025-10-30_09h33.10.003,Tutorial 6 | Delay Discounting Task,,2025.1.1,None,2025-10-30 09h33.17.728566 +0530,
15.0,35.0,13.0,93,3,9,t,1.1199694160022773,None,9,3,93,1,228.64755895800772,,228.6399966669851,228.64755895800772,229.63167979198624,229.63167979198624,229.63554225000553,230.75362883298658,t,1.1199694160022773,None,1,001,2025-10-30_09h33.10.003,Tutorial 6 | Delay Discounting Task,,2025.1.1,None,2025-10-30 09h33.17.728566 +0530,
27.0,50.0,21.0,94,4,9,t,0.7379654989927076,None,9,4,94,2,230.76780320800026,,230.7600224170019,230.76780320800026,231.75370591698447,231.75370591698447,231.76507708299323,232.50011424999684,t,0.7379654989927076,None,1,001,2025-10-30_09h33.10.003,Tutorial 6 | Delay Discounting Task,,2025.1.1,None,2025-10-30 09h33.17.728566 +0530,
50.0,69.0,49.0,95,5,9,l,0.7664272490073927,None,9,5,95,9,232.51505654200446,,232.5080855419801,232.51505654200446,233.49844333299552,233.49844333299552,233.5025013749837,234.266960457986,l,0.7664272490073927,None,1,001,2025-10-30_09h33.10.003,Tutorial 6 | Delay Discounting Task,,2025.1.1,None,2025-10-30 09h33.17.728566 +0530,
78.0,80.0,162.0,96,6,9,t,0.6005589159904048,None,9,6,96,6,234.2806920830044,,234.27363833299023,234.2806920830044,235.26510591700207,235.26510591700207,235.2692517079995,235.871193125,t,0.6005589159904048,None,1,001,2025-10-30_09h33.10.003,Tutorial 6 | Delay Discounting Task,,2025.1.1,None,2025-10-30 09h33.17.728566 +0530,
40.0,55.0,62.0,97,7,9,t,0.4927121240179986,None,9,7,97,3,235.88443258299958,,235.87766429199837,235.88443258299958,236.87010254198685,236.87010254198685,236.88191679198644,237.36743183300132,t,0.4927121240179986,None,1,001,2025-10-30_09h33.10.003,Tutorial 6 | Delay Discounting Task,,2025.1.1,None,2025-10-30 09h33.17.728566 +0530,
9.0,18.0,12.0,98,8,9,t,1.1664342080184724,None,9,8,98,8,237.38156637499924,,237.37422091700137,237.38156637499924,238.36506737500895,238.36506737500895,238.37031608299003,239.53348441698472,t,1.1664342080184724,None,1,001,2025-10-30_09h33.10.003,Tutorial 6 | Delay Discounting Task,,2025.1.1,None,2025-10-30 09h33.17.728566 +0530,
67.0,75.0,119.0,99,9,9,,,,9,9,99,5,239.54917824998847,,239.54057116698823,239.54917824998847,,,,,,,,,,,,,,,,
