thisN,thisTrialN,thisRepN,mouse.x,mouse.y,mouse.leftButton,mouse.midButton,mouse.rightButton,mouse.time,mouse.clicked_name,trials.thisRepN,trials.thisTrialN,trials.thisN,trials.thisIndex,thisRow.t,notes,num_distr,trial.started,fixation.started,target.started,mouse.started,trial.stopped,trials.mouse.x,trials.mouse.y,trials.mouse.leftButton,trials.mouse.midButton,trials.mouse.rightButton,trials.mouse.time,trials.mouse.clicked_name,participant,session,date,expName,expVersion,psychopyVersion,frameRate,expStart,
0,0,0,[np.float64(0.23666666666666666)],[np.float64(-0.008333333333333333)],[1],[0],[0],[1.2903159159759525],['target'],0,0,0,0,0.021265124989440665,,5,0.011335916991811246,0.021265124989440665,0.021265124989440665,0.011346458020852879,1.3017370419984218,[np.float64(0.23666666666666666)],[np.float64(-0.008333333333333333)],[1],[0],[0],[1.2903159159759525],['target'],1,001,2025-09-28_16h38.17.062,Visual Search Experiment,,2025.1.1,None,2025-09-28 16h38.24.032610 +0530,
1,0,1,[np.float64(0.31333333333333335)],[np.float64(-0.24666666666666667)],[1],[0],[0],[1.540555499988841],['target'],1,0,1,0,1.3301997919916175,,10,1.3222987079934683,1.3301997919916175,1.3301997919916175,0.020349750004243106,2.862912167009199,[np.float64(0.31333333333333335)],[np.float64(-0.24666666666666667)],[1],[0],[0],[1.540555499988841],['target'],1,001,2025-09-28_16h38.17.062,Visual Search Experiment,,2025.1.1,None,2025-09-28 16h38.24.032610 +0530,
2,0,2,[np.float64(0.11333333333333333)],[np.float64(-0.32166666666666666)],[1],[0],[0],[2.1125668330059852],['target'],2,0,2,0,2.8910559579962865,,10,2.8831177499960177,2.8910559579962865,2.8910559579962865,0.019998125004349276,4.995733999996446,[np.float64(0.11333333333333333)],[np.float64(-0.32166666666666666)],[1],[0],[0],[2.1125668330059852],['target'],1,001,2025-09-28_16h38.17.062,Visual Search Experiment,,2025.1.1,None,2025-09-28 16h38.24.032610 +0530,
3,0,3,[np.float64(0.19166666666666668)],[np.float64(-0.08833333333333333)],[1],[0],[0],[1.3646482919866685],['target'],3,0,3,0,5.0218884170171805,,10,5.014345000003232,5.0218884170171805,5.0218884170171805,0.018429749994538724,6.379036375001306,[np.float64(0.19166666666666668)],[np.float64(-0.08833333333333333)],[1],[0],[0],[1.3646482919866685],['target'],1,001,2025-09-28_16h38.17.062,Visual Search Experiment,,2025.1.1,None,2025-09-28 16h38.24.032610 +0530,
4,0,4,[np.float64(0.23)],[np.float64(0.35333333333333333)],[1],[0],[0],[1.7387149590067565],['target'],4,0,4,0,6.39615508299903,,5,6.389951707998989,6.39615508299903,6.39615508299903,0.010744750004960224,8.12873500000569,[np.float64(0.23)],[np.float64(0.35333333333333333)],[1],[0],[0],[1.7387149590067565],['target'],1,001,2025-09-28_16h38.17.062,Visual Search Experiment,,2025.1.1,None,2025-09-28 16h38.24.032610 +0530,
5,0,5,[np.float64(0.47833333333333333)],[np.float64(-0.39666666666666667)],[1],[0],[0],[2.3276556660130154],['target'],5,0,5,0,8.159551457996713,,10,8.150983166997321,8.159551457996713,8.159551457996713,0.022066667006583884,10.478686791990185,[np.float64(0.47833333333333333)],[np.float64(-0.39666666666666667)],[1],[0],[0],[2.3276556660130154],['target'],1,001,2025-09-28_16h38.17.062,Visual Search Experiment,,2025.1.1,None,2025-09-28 16h38.24.032610 +0530,
6,0,6,[np.float64(-0.22666666666666666)],[np.float64(0.18166666666666667)],[1],[0],[0],[1.5050936669867951],['target'],6,0,6,0,10.496382750017801,,5,10.490016708004987,10.496382750017801,10.496382750017801,0.011162750015500933,11.995173667004565,[np.float64(-0.22666666666666666)],[np.float64(0.18166666666666667)],[1],[0],[0],[1.5050936669867951],['target'],1,001,2025-09-28_16h38.17.062,Visual Search Experiment,,2025.1.1,None,2025-09-28 16h38.24.032610 +0530,
7,0,7,[np.float64(-0.14833333333333334)],[np.float64(0.365)],[1],[0],[0],[1.4964035839948338],['target'],7,0,7,0,12.024543250008719,,10,12.016018916998291,12.024543250008719,12.024543250008719,0.020675749983638525,13.512454792013159,[np.float64(-0.14833333333333334)],[np.float64(0.365)],[1],[0],[0],[1.4964035839948338],['target'],1,001,2025-09-28_16h38.17.062,Visual Search Experiment,,2025.1.1,None,2025-09-28 16h38.24.032610 +0530,
8,0,8,[np.float64(0.20666666666666667)],[np.float64(-0.315)],[1],[0],[0],[1.8822547500021756],['target'],8,0,8,0,13.536893875017995,,10,13.53003075000015,13.536893875017995,13.536893875017995,0.017433834000257775,15.412331333005568,[np.float64(0.20666666666666667)],[np.float64(-0.315)],[1],[0],[0],[1.8822547500021756],['target'],1,001,2025-09-28_16h38.17.062,Visual Search Experiment,,2025.1.1,None,2025-09-28 16h38.24.032610 +0530,
9,0,9,[np.float64(-0.175)],[np.float64(0.4266666666666667)],[1],[0],[0],[1.6056231249822304],['target'],9,0,9,0,15.429442041990114,,5,15.423308666999219,15.429442041990114,15.429442041990114,0.010812833003001288,17.029011792008532,[np.float64(-0.175)],[np.float64(0.4266666666666667)],[1],[0],[0],[1.6056231249822304],['target'],1,001,2025-09-28_16h38.17.062,Visual Search Experiment,,2025.1.1,None,2025-09-28 16h38.24.032610 +0530,
10,0,10,[np.float64(0.035)],[np.float64(0.19666666666666666)],[1],[0],[0],[1.262627459014766],['target'],10,0,10,0,17.059030792006524,,10,17.05021787501755,17.059030792006524,17.059030792006524,0.021037083002738655,18.312886958010495,[np.float64(0.035)],[np.float64(0.19666666666666666)],[1],[0],[0],[1.262627459014766],['target'],1,001,2025-09-28_16h38.17.062,Visual Search Experiment,,2025.1.1,None,2025-09-28 16h38.24.032610 +0530,
11,0,11,[np.float64(-0.06666666666666667)],[np.float64(-0.36666666666666664)],[1],[0],[0],[2.145645249984227],['target'],11,0,11,0,18.340589458006434,,10,18.33299504200113,18.340589458006434,18.340589458006434,0.01995083299698308,20.478694624995114,[np.float64(-0.06666666666666667)],[np.float64(-0.36666666666666664)],[1],[0],[0],[2.145645249984227],['target'],1,001,2025-09-28_16h38.17.062,Visual Search Experiment,,2025.1.1,None,2025-09-28 16h38.24.032610 +0530,
12,0,12,[np.float64(0.32166666666666666)],[np.float64(-0.275)],[1],[0],[0],[1.2887077080085874],['target'],12,0,12,0,20.495934125006897,,5,20.48978216701653,20.495934125006897,20.495934125006897,0.010928083007456735,21.7785578329931,[np.float64(0.32166666666666666)],[np.float64(-0.275)],[1],[0],[0],[1.2887077080085874],['target'],1,001,2025-09-28_16h38.17.062,Visual Search Experiment,,2025.1.1,None,2025-09-28 16h38.24.032610 +0530,
13,0,13,[np.float64(0.4583333333333333)],[np.float64(-0.125)],[1],[0],[0],[1.4620140839833766],['target'],13,0,13,0,21.808952042018063,,10,21.800407083006576,21.808952042018063,21.808952042018063,0.021683375001884997,23.262463958002627,[np.float64(0.4583333333333333)],[np.float64(-0.125)],[1],[0],[0],[1.4620140839833766],['target'],1,001,2025-09-28_16h38.17.062,Visual Search Experiment,,2025.1.1,None,2025-09-28 16h38.24.032610 +0530,
14,0,14,[np.float64(0.17666666666666667)],[np.float64(-0.13)],[1],[0],[0],[1.155656499991892],['target'],14,0,14,0,23.27969458300504,,5,23.273520000017015,23.27969458300504,23.27969458300504,0.010897416999796405,24.429242832993623,[np.float64(0.17666666666666667)],[np.float64(-0.13)],[1],[0],[0],[1.155656499991892],['target'],1,001,2025-09-28_16h38.17.062,Visual Search Experiment,,2025.1.1,None,2025-09-28 16h38.24.032610 +0530,
15,0,15,[np.float64(0.2866666666666667)],[np.float64(-0.13666666666666666)],[1],[0],[0],[1.3118874999927357],['target'],15,0,15,0,24.45981687499443,,10,24.45114304200979,24.45981687499443,24.45981687499443,0.021729917003540322,25.76306929200655,[np.float64(0.2866666666666667)],[np.float64(-0.13666666666666666)],[1],[0],[0],[1.3118874999927357],['target'],1,001,2025-09-28_16h38.17.062,Visual Search Experiment,,2025.1.1,None,2025-09-28 16h38.24.032610 +0530,
16,0,16,[np.float64(0.31333333333333335)],[np.float64(-0.021666666666666667)],[1],[0],[0],[1.029785582999466],['target'],16,0,16,0,25.79065445798915,,10,25.783369042008417,25.79065445798915,25.79065445798915,0.020139917003689334,26.813199666998116,[np.float64(0.31333333333333335)],[np.float64(-0.021666666666666667)],[1],[0],[0],[1.029785582999466],['target'],1,001,2025-09-28_16h38.17.062,Visual Search Experiment,,2025.1.1,None,2025-09-28 16h38.24.032610 +0530,
17,0,17,[np.float64(-0.39666666666666667)],[np.float64(-0.15166666666666667)],[1],[0],[0],[1.7391602080024313],['target'],17,0,17,0,26.83127133300877,,5,26.82472649999545,26.83127133300877,26.83127133300877,0.011365999991539866,28.563953750010114,[np.float64(-0.39666666666666667)],[np.float64(-0.15166666666666667)],[1],[0],[0],[1.7391602080024313],['target'],1,001,2025-09-28_16h38.17.062,Visual Search Experiment,,2025.1.1,None,2025-09-28 16h38.24.032610 +0530,
18,0,18,[np.float64(-0.19833333333333333)],[np.float64(-0.285)],[1],[0],[0],[1.1275855000130832],['target'],18,0,18,0,28.59429908299353,,10,28.585523250018014,28.59429908299353,28.59429908299353,0.02139833298861049,29.71316370801651,[np.float64(-0.19833333333333333)],[np.float64(-0.285)],[1],[0],[0],[1.1275855000130832],['target'],1,001,2025-09-28_16h38.17.062,Visual Search Experiment,,2025.1.1,None,2025-09-28 16h38.24.032610 +0530,
19,0,19,[np.float64(0.245)],[np.float64(0.03833333333333333)],[1],[0],[0],[1.628587042010622],['target'],19,0,19,0,29.741761917015538,,10,29.733727042010287,29.741761917015538,29.741761917015538,0.020363957999506965,31.362358749989653,[np.float64(0.245)],[np.float64(0.03833333333333333)],[1],[0],[0],[1.628587042010622],['target'],1,001,2025-09-28_16h38.17.062,Visual Search Experiment,,2025.1.1,None,2025-09-28 16h38.24.032610 +0530,
20,0,20,[np.float64(-0.485)],[np.float64(-0.175)],[1],[0],[0],[1.7409329589863773],['target'],20,0,20,0,31.3790339170082,,5,31.372999917017296,31.3790339170082,31.3790339170082,0.010469417000422254,33.113998125016224,[np.float64(-0.485)],[np.float64(-0.175)],[1],[0],[0],[1.7409329589863773],['target'],1,001,2025-09-28_16h38.17.062,Visual Search Experiment,,2025.1.1,None,2025-09-28 16h38.24.032610 +0530,
21,0,21,[np.float64(0.2633333333333333)],[np.float64(0.10166666666666667)],[1],[0],[0],[1.4422176250081975],['target'],21,0,21,0,33.14512695799931,,10,33.136349957989296,33.14512695799931,33.14512695799931,0.022143375012092292,34.57860004200484,[np.float64(0.2633333333333333)],[np.float64(0.10166666666666667)],[1],[0],[0],[1.4422176250081975],['target'],1,001,2025-09-28_16h38.17.062,Visual Search Experiment,,2025.1.1,None,2025-09-28 16h38.24.032610 +0530,
22,0,22,[np.float64(0.175)],[np.float64(0.4666666666666667)],[1],[0],[0],[2.273560583998915],['target'],22,0,22,0,34.5948453329911,,5,34.58885175001342,34.5948453329911,34.5948453329911,0.010117124998942018,36.86249425000278,[np.float64(0.175)],[np.float64(0.4666666666666667)],[1],[0],[0],[2.273560583998915],['target'],1,001,2025-09-28_16h38.17.062,Visual Search Experiment,,2025.1.1,None,2025-09-28 16h38.24.032610 +0530,
23,0,23,[np.float64(-0.465)],[np.float64(-0.03333333333333333)],[1],[0],[0],[2.2296471250010654],['target'],23,0,23,0,36.89252566700452,,10,36.883814542001346,36.89252566700452,36.89252566700452,0.02112058299826458,39.113519333011936,[np.float64(-0.465)],[np.float64(-0.03333333333333333)],[1],[0],[0],[2.2296471250010654],['target'],1,001,2025-09-28_16h38.17.062,Visual Search Experiment,,2025.1.1,None,2025-09-28 16h38.24.032610 +0530,
24,0,24,[np.float64(-0.016666666666666666)],[np.float64(0.13666666666666666)],[1],[0],[0],[1.212971416010987],['target'],24,0,24,0,39.14248974999646,,10,39.13402666701586,39.14248974999646,39.14248974999646,0.020307458005845547,40.34706400000141,[np.float64(-0.016666666666666666)],[np.float64(0.13666666666666666)],[1],[0],[0],[1.212971416010987],['target'],1,001,2025-09-28_16h38.17.062,Visual Search Experiment,,2025.1.1,None,2025-09-28 16h38.24.032610 +0530,
25,0,25,[np.float64(0.12166666666666667)],[np.float64(-0.34833333333333333)],[1],[0],[0],[2.053903249994619],['target'],25,0,25,0,40.36540579199209,,5,40.35892591701122,40.36540579199209,40.36540579199209,0.01166362498770468,42.41288912500022,[np.float64(0.12166666666666667)],[np.float64(-0.34833333333333333)],[1],[0],[0],[2.053903249994619],['target'],1,001,2025-09-28_16h38.17.062,Visual Search Experiment,,2025.1.1,None,2025-09-28 16h38.24.032610 +0530,
26,0,26,[np.float64(0.07333333333333333)],[np.float64(0.36)],[1],[0],[0],[2.5947276249935385],['target'],26,0,26,0,42.44329049999942,,10,42.43484304199228,42.44329049999942,42.44329049999942,0.0217785409768112,45.02960825001355,[np.float64(0.07333333333333333)],[np.float64(0.36)],[1],[0],[0],[2.5947276249935385],['target'],1,001,2025-09-28_16h38.17.062,Visual Search Experiment,,2025.1.1,None,2025-09-28 16h38.24.032610 +0530,
27,0,27,[np.float64(0.4266666666666667)],[np.float64(-0.03833333333333333)],[1],[0],[0],[2.038586040987866],['target'],27,0,27,0,45.04742591700051,,5,45.0409582919965,45.04742591700051,45.04742591700051,0.011186290998011827,47.079607749998104,[np.float64(0.4266666666666667)],[np.float64(-0.03833333333333333)],[1],[0],[0],[2.038586040987866],['target'],1,001,2025-09-28_16h38.17.062,Visual Search Experiment,,2025.1.1,None,2025-09-28 16h38.24.032610 +0530,
28,0,28,[np.float64(0.08333333333333333)],[np.float64(0.29333333333333333)],[1],[0],[0],[1.3882721659902018],['target'],28,0,28,0,47.09908304200508,,5,47.09236029200838,47.09908304200508,47.09908304200508,0.012581666000187397,48.48069441699772,[np.float64(0.08333333333333333)],[np.float64(0.29333333333333333)],[1],[0],[0],[1.3882721659902018],['target'],1,001,2025-09-28_16h38.17.062,Visual Search Experiment,,2025.1.1,None,2025-09-28 16h38.24.032610 +0530,
29,0,29,[np.float64(0.425)],[np.float64(-0.44333333333333336)],[1],[0],[0],[2.4351928750111256],['target'],29,0,29,0,48.50121625000611,,5,48.49446945800446,48.50121625000611,48.50121625000611,0.013598374993307516,50.929727000009734,[np.float64(0.425)],[np.float64(-0.44333333333333336)],[1],[0],[0],[2.4351928750111256],['target'],1,001,2025-09-28_16h38.17.062,Visual Search Experiment,,2025.1.1,None,2025-09-28 16h38.24.032610 +0530,
30,0,30,[np.float64(0.225)],[np.float64(0.23833333333333334)],[1],[0],[0],[1.9758805829915218],['target'],30,0,30,0,50.96250945801148,,10,50.95349008298945,50.96250945801148,50.96250945801148,0.023590957978740335,52.92941312500625,[np.float64(0.225)],[np.float64(0.23833333333333334)],[1],[0],[0],[1.9758805829915218],['target'],1,001,2025-09-28_16h38.17.062,Visual Search Experiment,,2025.1.1,None,2025-09-28 16h38.24.032610 +0530,
31,0,31,[np.float64(0.045)],[np.float64(0.33)],[1],[0],[0],[1.104740499984473],['target'],31,0,31,0,52.94629383299616,,5,52.940160750004,52.94629383299616,52.94629383299616,0.010584708012174815,54.04496316699078,[np.float64(0.045)],[np.float64(0.33)],[1],[0],[0],[1.104740499984473],['target'],1,001,2025-09-28_16h38.17.062,Visual Search Experiment,,2025.1.1,None,2025-09-28 16h38.24.032610 +0530,
32,0,32,[np.float64(-0.49333333333333335)],[np.float64(-0.0033333333333333335)],[1],[0],[0],[1.5485862499917857],['target'],32,0,32,0,54.07271604199195,,10,54.06474095801241,54.07271604199195,54.07271604199195,0.01961204200051725,55.61337224999443,[np.float64(-0.49333333333333335)],[np.float64(-0.0033333333333333335)],[1],[0],[0],[1.5485862499917857],['target'],1,001,2025-09-28_16h38.17.062,Visual Search Experiment,,2025.1.1,None,2025-09-28 16h38.24.032610 +0530,
33,0,33,[np.float64(0.195)],[np.float64(-0.185)],[1],[0],[0],[1.7068548329989426],['target'],33,0,33,0,55.63094674999593,,5,55.62445516700973,55.63094674999593,55.63094674999593,0.010905333008849993,57.33137716699275,[np.float64(0.195)],[np.float64(-0.185)],[1],[0],[0],[1.7068548329989426],['target'],1,001,2025-09-28_16h38.17.062,Visual Search Experiment,,2025.1.1,None,2025-09-28 16h38.24.032610 +0530,
34,0,34,[np.float64(-0.3883333333333333)],[np.float64(-0.02)],[1],[0],[0],[1.7366749999928288],['target'],34,0,34,0,57.35110216701287,,5,57.34425579200615,57.35110216701287,57.35110216701287,0.012704499997198582,59.08100341699901,[np.float64(-0.3883333333333333)],[np.float64(-0.02)],[1],[0],[0],[1.7366749999928288],['target'],1,001,2025-09-28_16h38.17.062,Visual Search Experiment,,2025.1.1,None,2025-09-28 16h38.24.032610 +0530,
35,0,35,[np.float64(0.35833333333333334)],[np.float64(0.35833333333333334)],[1],[0],[0],[1.8527080000203568],['target'],35,0,35,0,59.10102500001085,,5,59.09434929199051,59.10102500001085,59.10102500001085,0.013174166000680998,60.947123457997805,[np.float64(0.35833333333333334)],[np.float64(0.35833333333333334)],[1],[0],[0],[1.8527080000203568],['target'],1,001,2025-09-28_16h38.17.062,Visual Search Experiment,,2025.1.1,None,2025-09-28 16h38.24.032610 +0530,
36,0,36,[np.float64(0.051666666666666666)],[np.float64(-0.4866666666666667)],[1],[0],[0],[2.7947620829800144],['target'],36,0,36,0,60.97718287500902,,10,60.96851429200615,60.97718287500902,60.97718287500902,0.021228124998742715,63.76332095800899,[np.float64(0.051666666666666666)],[np.float64(-0.4866666666666667)],[1],[0],[0],[2.7947620829800144],['target'],1,001,2025-09-28_16h38.17.062,Visual Search Experiment,,2025.1.1,None,2025-09-28 16h38.24.032610 +0530,
37,0,37,[np.float64(0.03333333333333333)],[np.float64(-0.015)],[1],[0],[0],[1.7295194579928648],['target'],37,0,37,0,63.79119325001375,,10,63.783116917009465,63.79119325001375,63.79119325001375,0.019633792020613328,65.51268220800557,[np.float64(0.03333333333333333)],[np.float64(-0.015)],[1],[0],[0],[1.7295194579928648],['target'],1,001,2025-09-28_16h38.17.062,Visual Search Experiment,,2025.1.1,None,2025-09-28 16h38.24.032610 +0530,
38,0,38,[np.float64(0.21833333333333332)],[np.float64(0.4866666666666667)],[1],[0],[0],[2.3893222920014523],['target'],38,0,38,0,65.53053675001138,,5,65.52375049999682,65.53053675001138,65.53053675001138,0.010896708001382649,67.91313762500067,[np.float64(0.21833333333333332)],[np.float64(0.4866666666666667)],[1],[0],[0],[2.3893222920014523],['target'],1,001,2025-09-28_16h38.17.062,Visual Search Experiment,,2025.1.1,None,2025-09-28 16h38.24.032610 +0530,
39,0,39,[np.float64(-0.4166666666666667)],[np.float64(-0.09)],[1],[0],[0],[1.4025199169991538],['target'],39,0,39,0,67.93309433301329,,5,67.9263207920012,67.93309433301329,67.93309433301329,0.013013417017646134,69.32890862500062,[np.float64(-0.4166666666666667)],[np.float64(-0.09)],[1],[0],[0],[1.4025199169991538],['target'],1,001,2025-09-28_16h38.17.062,Visual Search Experiment,,2025.1.1,None,2025-09-28 16h38.24.032610 +0530,
40,0,40,[np.float64(0.13333333333333333)],[np.float64(-0.40166666666666667)],[1],[0],[0],[3.222999332996551],['target'],40,0,40,0,69.34782658299082,,5,69.34111833301722,69.34782658299082,69.34782658299082,0.012026290991343558,72.5641791250091,[np.float64(0.13333333333333333)],[np.float64(-0.40166666666666667)],[1],[0],[0],[3.222999332996551],['target'],1,001,2025-09-28_16h38.17.062,Visual Search Experiment,,2025.1.1,None,2025-09-28 16h38.24.032610 +0530,
41,0,41,[np.float64(0.16833333333333333)],[np.float64(0.44333333333333336)],[1],[0],[0],[2.1540214580018073],['target'],41,0,41,0,72.58343412500108,,5,72.57659158299793,72.58343412500108,72.58343412500108,0.012248625018401071,74.73068116701324,[np.float64(0.16833333333333333)],[np.float64(0.44333333333333336)],[1],[0],[0],[2.1540214580018073],['target'],1,001,2025-09-28_16h38.17.062,Visual Search Experiment,,2025.1.1,None,2025-09-28 16h38.24.032610 +0530,
42,0,42,[np.float64(0.455)],[np.float64(-0.2783333333333333)],[1],[0],[0],[2.101353249978274],['target'],42,0,42,0,74.75066133300425,,5,74.74391991700395,74.75066133300425,74.75066133300425,0.013060792000032961,76.84533529198961,[np.float64(0.455)],[np.float64(-0.2783333333333333)],[1],[0],[0],[2.101353249978274],['target'],1,001,2025-09-28_16h38.17.062,Visual Search Experiment,,2025.1.1,None,2025-09-28 16h38.24.032610 +0530,
43,0,43,[np.float64(-0.08166666666666667)],[np.float64(0.485)],[1],[0],[0],[1.5552429159870371],['target'],43,0,43,0,76.86434649999137,,5,76.85762179200538,76.86434649999137,76.86434649999137,0.012115459016058594,78.41291437501786,[np.float64(-0.08166666666666667)],[np.float64(0.485)],[1],[0],[0],[1.5552429159870371],['target'],1,001,2025-09-28_16h38.17.062,Visual Search Experiment,,2025.1.1,None,2025-09-28 16h38.24.032610 +0530,
44,0,44,[np.float64(-0.32166666666666666)],[np.float64(0.17666666666666667)],[1],[0],[0],[1.706028457992943],['target'],44,0,44,0,78.43068333299016,,5,78.4242019999947,78.43068333299016,78.43068333299016,0.01114770901040174,80.13028854201548,[np.float64(-0.32166666666666666)],[np.float64(0.17666666666666667)],[1],[0],[0],[1.706028457992943],['target'],1,001,2025-09-28_16h38.17.062,Visual Search Experiment,,2025.1.1,None,2025-09-28 16h38.24.032610 +0530,
45,0,45,[np.float64(0.36833333333333335)],[np.float64(-0.20333333333333334)],[1],[0],[0],[1.9855929579935037],['target'],45,0,45,0,80.15010724999593,,5,80.14322212501429,80.15010724999593,80.15010724999593,0.012779208016581833,82.12887437499012,[np.float64(0.36833333333333335)],[np.float64(-0.20333333333333334)],[1],[0],[0],[1.9855929579935037],['target'],1,001,2025-09-28_16h38.17.062,Visual Search Experiment,,2025.1.1,None,2025-09-28 16h38.24.032610 +0530,
46,0,46,[np.float64(-0.23833333333333334)],[np.float64(-0.12666666666666668)],[1],[0],[0],[1.3538228340039495],['target'],46,0,46,0,82.14803924999433,,5,82.14119979200768,82.14803924999433,82.14803924999433,0.012141750019509345,83.49508758299635,[np.float64(-0.23833333333333334)],[np.float64(-0.12666666666666668)],[1],[0],[0],[1.3538228340039495],['target'],1,001,2025-09-28_16h38.17.062,Visual Search Experiment,,2025.1.1,None,2025-09-28 16h38.24.032610 +0530,
47,0,47,[np.float64(-0.2783333333333333)],[np.float64(0.435)],[1],[0],[0],[1.8629606670001522],['target'],47,0,47,0,83.5247773329902,,10,83.51635666700895,83.5247773329902,83.5247773329902,0.02109170801122673,85.37937141701696,[np.float64(-0.2783333333333333)],[np.float64(0.435)],[1],[0],[0],[1.8629606670001522],['target'],1,001,2025-09-28_16h38.17.062,Visual Search Experiment,,2025.1.1,None,2025-09-28 16h38.24.032610 +0530,
48,0,48,[np.float64(0.3616666666666667)],[np.float64(-0.085)],[1],[0],[0],[2.632147916010581],['target'],48,0,48,0,85.40497075000894,,10,85.39768229200854,85.40497075000894,85.40497075000894,0.01814637499046512,88.02988112499588,[np.float64(0.3616666666666667)],[np.float64(-0.085)],[1],[0],[0],[2.632147916010581],['target'],1,001,2025-09-28_16h38.17.062,Visual Search Experiment,,2025.1.1,None,2025-09-28 16h38.24.032610 +0530,
49,0,49,[np.float64(0.07)],[np.float64(0.48)],[1],[0],[0],[2.247073000005912],['target'],49,0,49,0,88.05662787499023,,10,88.04922312501003,88.05662787499023,88.05662787499023,0.019180665985913947,90.29633870799444,[np.float64(0.07)],[np.float64(0.48)],[1],[0],[0],[2.247073000005912],['target'],1,001,2025-09-28_16h38.17.062,Visual Search Experiment,,2025.1.1,None,2025-09-28 16h38.24.032610 +0530,
50,0,50,[np.float64(0.225)],[np.float64(-0.33166666666666667)],[1],[0],[0],[1.772166541981278],['target'],50,0,50,0,90.31293620800716,,5,90.30673220800236,90.31293620800716,90.31293620800716,0.010239082999760285,92.07896479201736,[np.float64(0.225)],[np.float64(-0.33166666666666667)],[1],[0],[0],[1.772166541981278],['target'],1,001,2025-09-28_16h38.17.062,Visual Search Experiment,,2025.1.1,None,2025-09-28 16h38.24.032610 +0530,
51,0,51,[np.float64(0.19833333333333333)],[np.float64(-0.24)],[1],[0],[0],[1.2400548750010785],['target'],51,0,51,0,92.0979143329896,,5,92.09124100001645,92.0979143329896,92.0979143329896,0.012106708018109202,93.33136270800605,[np.float64(0.19833333333333333)],[np.float64(-0.24)],[1],[0],[0],[1.2400548750010785],['target'],1,001,2025-09-28_16h38.17.062,Visual Search Experiment,,2025.1.1,None,2025-09-28 16h38.24.032610 +0530,
52,0,52,[np.float64(0.30333333333333334)],[np.float64(0.21)],[1],[0],[0],[1.3507729159900919],['target'],52,0,52,0,93.35170937501243,,5,93.34470950000104,93.35170937501243,93.35170937501243,0.013178208988392726,94.69555100001162,[np.float64(0.30333333333333334)],[np.float64(0.21)],[1],[0],[0],[1.3507729159900919],['target'],1,001,2025-09-28_16h38.17.062,Visual Search Experiment,,2025.1.1,None,2025-09-28 16h38.24.032610 +0530,
53,0,53,[np.float64(-0.41833333333333333)],[np.float64(0.4866666666666667)],[1],[0],[0],[2.2212873329990543],[None],53,0,53,0,94.71417041699169,,5,94.70746083301492,94.71417041699169,94.71417041699169,0.01174587500281632,96.9288183329918,[np.float64(-0.41833333333333333)],[np.float64(0.4866666666666667)],[1],[0],[0],[2.2212873329990543],[None],1,001,2025-09-28_16h38.17.062,Visual Search Experiment,,2025.1.1,None,2025-09-28 16h38.24.032610 +0530,
54,0,54,[np.float64(-0.24833333333333332)],[np.float64(0.043333333333333335)],[1],[0],[0],[1.3385372499760706],['target'],54,0,54,0,96.94734941699426,,5,96.94069312501233,96.94734941699426,96.94734941699426,0.011706749995937571,98.27930200000992,[np.float64(-0.24833333333333332)],[np.float64(0.043333333333333335)],[1],[0],[0],[1.3385372499760706],['target'],1,001,2025-09-28_16h38.17.062,Visual Search Experiment,,2025.1.1,None,2025-09-28 16h38.24.032610 +0530,
55,0,55,[np.float64(-0.315)],[np.float64(0.41)],[1],[0],[0],[1.5201409170113038],['target'],55,0,55,0,98.29837429200415,,5,98.29163745799451,98.29837429200415,98.29837429200415,0.0121731249964796,99.81182416700176,[np.float64(-0.315)],[np.float64(0.41)],[1],[0],[0],[1.5201409170113038],['target'],1,001,2025-09-28_16h38.17.062,Visual Search Experiment,,2025.1.1,None,2025-09-28 16h38.24.032610 +0530,
56,0,56,[np.float64(0.03333333333333333)],[np.float64(-0.021666666666666667)],[1],[0],[0],[2.0058103750052396],['target'],56,0,56,0,99.83001562498976,,5,99.8234315419977,99.83001562498976,99.83001562498976,0.01147220900747925,101.82931262499187,[np.float64(0.03333333333333333)],[np.float64(-0.021666666666666667)],[1],[0],[0],[2.0058103750052396],['target'],1,001,2025-09-28_16h38.17.062,Visual Search Experiment,,2025.1.1,None,2025-09-28 16h38.24.032610 +0530,
57,0,57,[np.float64(-0.18166666666666667)],[np.float64(-0.15166666666666667)],[1],[0],[0],[1.779459165991284],['target'],57,0,57,0,101.85848787499708,,10,101.84969679199276,101.85848787499708,101.85848787499708,0.020194832992274314,103.62919941701693,[np.float64(-0.18166666666666667)],[np.float64(-0.15166666666666667)],[1],[0],[0],[1.779459165991284],['target'],1,001,2025-09-28_16h38.17.062,Visual Search Experiment,,2025.1.1,None,2025-09-28 16h38.24.032610 +0530,
58,0,58,[np.float64(0.295)],[np.float64(0.21666666666666667)],[1],[0],[0],[1.5415091250033583],['target'],58,0,58,0,103.64615712501109,,5,103.63976733299205,103.64615712501109,103.64615712501109,0.010359208012232557,105.18134949999512,[np.float64(0.295)],[np.float64(0.21666666666666667)],[1],[0],[0],[1.5415091250033583],['target'],1,001,2025-09-28_16h38.17.062,Visual Search Experiment,,2025.1.1,None,2025-09-28 16h38.24.032610 +0530,
59,0,59,[np.float64(-0.15166666666666667)],[np.float64(0.3016666666666667)],[1],[0],[0],[1.5430960839730687],['target'],59,0,59,0,105.21199329200317,,10,105.20303654199233,105.21199329200317,105.21199329200317,0.021499459020560607,106.74617437500274,[np.float64(-0.15166666666666667)],[np.float64(0.3016666666666667)],[1],[0],[0],[1.5430960839730687],['target'],1,001,2025-09-28_16h38.17.062,Visual Search Experiment,,2025.1.1,None,2025-09-28 16h38.24.032610 +0530,
60,0,60,[np.float64(-0.3233333333333333)],[np.float64(0.07)],[1],[0],[0],[1.423077707993798],['target'],60,0,60,0,106.76276558300015,,5,106.75641699999687,106.76276558300015,106.76276558300015,0.010081208019983023,108.17955691699171,[np.float64(-0.3233333333333333)],[np.float64(0.07)],[1],[0],[0],[1.423077707993798],['target'],1,001,2025-09-28_16h38.17.062,Visual Search Experiment,,2025.1.1,None,2025-09-28 16h38.24.032610 +0530,
61,0,61,[np.float64(-0.44166666666666665)],[np.float64(0.028333333333333332)],[1],[0],[0],[0.8213347500131931],['target'],61,0,61,0,108.1978898330126,,5,108.19116570800543,108.1978898330126,108.1978898330126,0.011473459016997367,109.01256254198961,[np.float64(-0.44166666666666665)],[np.float64(0.028333333333333332)],[1],[0],[0],[0.8213347500131931],['target'],1,001,2025-09-28_16h38.17.062,Visual Search Experiment,,2025.1.1,None,2025-09-28 16h38.24.032610 +0530,
62,0,62,[np.float64(-0.265)],[np.float64(0.31166666666666665)],[1],[0],[0],[1.4720685830106959],['target'],62,0,62,0,109.03141216700897,,5,109.02427116699982,109.03141216700897,109.03141216700897,0.011539999977685511,110.49638537500869,[np.float64(-0.265)],[np.float64(0.31166666666666665)],[1],[0],[0],[1.4720685830106959],['target'],1,001,2025-09-28_16h38.17.062,Visual Search Experiment,,2025.1.1,None,2025-09-28 16h38.24.032610 +0530,
63,0,63,[np.float64(0.325)],[np.float64(0.47)],[1],[0],[0],[1.588095874991268],[None],63,0,63,0,110.51438354200218,,5,110.50815420801518,110.51438354200218,110.51438354200218,0.011642208992270753,112.09631045800052,[np.float64(0.325)],[np.float64(0.47)],[1],[0],[0],[1.588095874991268],[None],1,001,2025-09-28_16h38.17.062,Visual Search Experiment,,2025.1.1,None,2025-09-28 16h38.24.032610 +0530,
64,0,64,[np.float64(0.21666666666666667)],[np.float64(-0.18166666666666667)],[1],[0],[0],[2.0892020410101395],['target'],64,0,64,0,112.11554379199515,,5,112.10815154199372,112.11554379199515,112.11554379199515,0.011676374997477978,114.19741754198913,[np.float64(0.21666666666666667)],[np.float64(-0.18166666666666667)],[1],[0],[0],[2.0892020410101395],['target'],1,001,2025-09-28_16h38.17.062,Visual Search Experiment,,2025.1.1,None,2025-09-28 16h38.24.032610 +0530,
65,0,65,[np.float64(-0.2816666666666667)],[np.float64(-0.43833333333333335)],[1],[0],[0],[1.8847204580088146],['target'],65,0,65,0,114.21745258299052,,5,114.21044716701726,114.21745258299052,114.21745258299052,0.012870792008470744,116.09522233300959,[np.float64(-0.2816666666666667)],[np.float64(-0.43833333333333335)],[1],[0],[0],[1.8847204580088146],['target'],1,001,2025-09-28_16h38.17.062,Visual Search Experiment,,2025.1.1,None,2025-09-28 16h38.24.032610 +0530,
66,0,66,[np.float64(0.425)],[np.float64(-0.2633333333333333)],[1],[0],[0],[2.6660393749771174],['target'],66,0,66,0,116.12208887501038,,10,116.11400508301449,116.12208887501038,116.12208887501038,0.018649915989954025,118.78008745799889,[np.float64(0.425)],[np.float64(-0.2633333333333333)],[1],[0],[0],[2.6660393749771174],['target'],1,001,2025-09-28_16h38.17.062,Visual Search Experiment,,2025.1.1,None,2025-09-28 16h38.24.032610 +0530,
67,0,67,[np.float64(0.05333333333333334)],[np.float64(-0.17666666666666667)],[1],[0],[0],[1.5967202500032727],['target'],67,0,67,0,118.80794400000013,,10,118.79957229201682,118.80794400000013,118.80794400000013,0.019323832995723933,120.3963377920154,[np.float64(0.05333333333333334)],[np.float64(-0.17666666666666667)],[1],[0],[0],[1.5967202500032727],['target'],1,001,2025-09-28_16h38.17.062,Visual Search Experiment,,2025.1.1,None,2025-09-28 16h38.24.032610 +0530,
68,0,68,[np.float64(0.43666666666666665)],[np.float64(-0.30333333333333334)],[1],[0],[0],[1.5319874589913525],['target'],68,0,68,0,120.42164512499585,,10,120.41445425001439,120.42164512499585,120.42164512499585,0.01795249999850057,121.9464868750074,[np.float64(0.43666666666666665)],[np.float64(-0.30333333333333334)],[1],[0],[0],[1.5319874589913525],['target'],1,001,2025-09-28_16h38.17.062,Visual Search Experiment,,2025.1.1,None,2025-09-28 16h38.24.032610 +0530,
69,0,69,[np.float64(0.12166666666666667)],[np.float64(-0.25333333333333335)],[1],[0],[0],[1.1392984999984037],['target'],69,0,69,0,121.96345687500434,,5,121.95707420801045,121.96345687500434,121.96345687500434,0.010421749990200624,123.09643279199372,[np.float64(0.12166666666666667)],[np.float64(-0.25333333333333335)],[1],[0],[0],[1.1392984999984037],['target'],1,001,2025-09-28_16h38.17.062,Visual Search Experiment,,2025.1.1,None,2025-09-28 16h38.24.032610 +0530,
70,0,70,[np.float64(0.255)],[np.float64(-0.24)],[1],[0],[0],[0.986846957996022],['target'],70,0,70,0,123.11582974999328,,5,123.10894775000634,123.11582974999328,123.11582974999328,0.012340665998635814,124.09586045800825,[np.float64(0.255)],[np.float64(-0.24)],[1],[0],[0],[0.986846957996022],['target'],1,001,2025-09-28_16h38.17.062,Visual Search Experiment,,2025.1.1,None,2025-09-28 16h38.24.032610 +0530,
71,0,71,[np.float64(0.02666666666666667)],[np.float64(0.043333333333333335)],[1],[0],[0],[1.2613483330060262],['target'],71,0,71,0,124.12658499999088,,10,124.11757887501153,124.12658499999088,124.12658499999088,0.021533084014663473,125.37895912499516,[np.float64(0.02666666666666667)],[np.float64(0.043333333333333335)],[1],[0],[0],[1.2613483330060262],['target'],1,001,2025-09-28_16h38.17.062,Visual Search Experiment,,2025.1.1,None,2025-09-28 16h38.24.032610 +0530,
72,0,72,[np.float64(0.4)],[np.float64(0.39666666666666667)],[1],[0],[0],[1.6831311669957358],['target'],72,0,72,0,125.40351412500604,,10,125.39641262500663,125.40351412500604,125.40351412500604,0.01731537500745617,127.0795930000022,[np.float64(0.4)],[np.float64(0.39666666666666667)],[1],[0],[0],[1.6831311669957358],['target'],1,001,2025-09-28_16h38.17.062,Visual Search Experiment,,2025.1.1,None,2025-09-28 16h38.24.032610 +0530,
73,0,73,[np.float64(0.13666666666666666)],[np.float64(0.05333333333333334)],[1],[0],[0],[1.1653257919824682],['target'],73,0,73,0,127.10483845800627,,10,127.0975672499917,127.10483845800627,127.10483845800627,0.017819166998378932,128.26294049998978,[np.float64(0.13666666666666666)],[np.float64(0.05333333333333334)],[1],[0],[0],[1.1653257919824682],['target'],1,001,2025-09-28_16h38.17.062,Visual Search Experiment,,2025.1.1,None,2025-09-28 16h38.24.032610 +0530,
74,0,74,[np.float64(-0.49666666666666665)],[np.float64(-0.475)],[1],[0],[0],[2.49731191599858],['target'],74,0,74,0,128.2894577080151,,10,128.28215808299137,128.2894577080151,128.2894577080151,0.01905874998192303,130.77951100000064,[np.float64(-0.49666666666666665)],[np.float64(-0.475)],[1],[0],[0],[2.49731191599858],['target'],1,001,2025-09-28_16h38.17.062,Visual Search Experiment,,2025.1.1,None,2025-09-28 16h38.24.032610 +0530,
75,0,75,[np.float64(0.4483333333333333)],[np.float64(-0.028333333333333332)],[1],[0],[0],[1.4903595419891644],['target'],75,0,75,0,130.79625845799455,,5,130.78968366701156,130.79625845799455,130.79625845799455,0.010020167013863102,132.280110666994,[np.float64(0.4483333333333333)],[np.float64(-0.028333333333333332)],[1],[0],[0],[1.4903595419891644],['target'],1,001,2025-09-28_16h38.17.062,Visual Search Experiment,,2025.1.1,None,2025-09-28 16h38.24.032610 +0530,
76,0,76,[np.float64(-0.215)],[np.float64(0.455)],[1],[0],[0],[2.1942441659921315],['target'],76,0,76,0,132.3105850830034,,10,132.30183974999818,132.3105850830034,132.3105850830034,0.021546666976064444,134.49612674998934,[np.float64(-0.215)],[np.float64(0.455)],[1],[0],[0],[2.1942441659921315],['target'],1,001,2025-09-28_16h38.17.062,Visual Search Experiment,,2025.1.1,None,2025-09-28 16h38.24.032610 +0530,
77,0,77,[np.float64(0.2916666666666667)],[np.float64(0.08666666666666667)],[1],[0],[0],[2.0893428329727612],['target'],77,0,77,0,134.51287029200466,,5,134.5064255000034,134.51287029200466,134.51287029200466,0.01013687500380911,136.59583370800829,[np.float64(0.2916666666666667)],[np.float64(0.08666666666666667)],[1],[0],[0],[2.0893428329727612],['target'],1,001,2025-09-28_16h38.17.062,Visual Search Experiment,,2025.1.1,None,2025-09-28 16h38.24.032610 +0530,
78,0,78,[np.float64(0.19666666666666666)],[np.float64(-0.07833333333333334)],[1],[0],[0],[1.0709171659837011],['target'],78,0,78,0,136.61512129200855,,5,136.60778237500926,136.61512129200855,136.61512129200855,0.011781042005168274,137.6787491250143,[np.float64(0.19666666666666666)],[np.float64(-0.07833333333333334)],[1],[0],[0],[1.0709171659837011],['target'],1,001,2025-09-28_16h38.17.062,Visual Search Experiment,,2025.1.1,None,2025-09-28 16h38.24.032610 +0530,
79,0,79,[np.float64(0.26166666666666666)],[np.float64(-0.12166666666666667)],[1],[0],[0],[0.7900084159919061],['target'],79,0,79,0,137.69619600000442,,5,137.68983841699082,137.69619600000442,137.69619600000442,0.010958416998619214,138.47990341699915,[np.float64(0.26166666666666666)],[np.float64(-0.12166666666666667)],[1],[0],[0],[0.7900084159919061],['target'],1,001,2025-09-28_16h38.17.062,Visual Search Experiment,,2025.1.1,None,2025-09-28 16h38.24.032610 +0530,
80,0,80,[np.float64(-0.27)],[np.float64(-0.03)],[1],[0],[0],[1.378879041003529],['target'],80,0,80,0,138.5080153750023,,10,138.50040741701378,138.5080153750023,138.5080153750023,0.02036533399950713,139.87933283299208,[np.float64(-0.27)],[np.float64(-0.03)],[1],[0],[0],[1.378879041003529],['target'],1,001,2025-09-28_16h38.17.062,Visual Search Experiment,,2025.1.1,None,2025-09-28 16h38.24.032610 +0530,
81,0,81,[np.float64(0.345)],[np.float64(-0.305)],[1],[0],[0],[2.007099125010427],['target'],81,0,81,0,139.8957008330035,,5,139.88957279201713,139.8957008330035,139.8957008330035,0.010076165985083207,141.89674029199523,[np.float64(0.345)],[np.float64(-0.305)],[1],[0],[0],[2.007099125010427],['target'],1,001,2025-09-28_16h38.17.062,Visual Search Experiment,,2025.1.1,None,2025-09-28 16h38.24.032610 +0530,
82,0,82,[np.float64(-0.5016666666666667)],[np.float64(0.26666666666666666)],[1],[0],[0],[1.620127041998785],['target'],82,0,82,0,141.91622491698945,,5,141.9093100829923,141.91622491698945,141.91622491698945,0.012389082985464483,143.529503208003,[np.float64(-0.5016666666666667)],[np.float64(0.26666666666666666)],[1],[0],[0],[1.620127041998785],['target'],1,001,2025-09-28_16h38.17.062,Visual Search Experiment,,2025.1.1,None,2025-09-28 16h38.24.032610 +0530,
83,0,83,[np.float64(-0.21666666666666667)],[np.float64(0.42)],[1],[0],[0],[3.3297664589772467],['target'],83,0,83,0,143.55782295801328,,10,143.54915745800827,143.55782295801328,143.55782295801328,0.01948466699104756,146.87896391699906,[np.float64(-0.21666666666666667)],[np.float64(0.42)],[1],[0],[0],[3.3297664589772467],['target'],1,001,2025-09-28_16h38.17.062,Visual Search Experiment,,2025.1.1,None,2025-09-28 16h38.24.032610 +0530,
84,0,84,[np.float64(-0.085)],[np.float64(-0.23333333333333334)],[1],[0],[0],[1.3736704170005396],['target'],84,0,84,0,146.89528179200715,,5,146.88873125001555,146.89528179200715,146.89528179200715,0.00961999999708496,148.26246204201016,[np.float64(-0.085)],[np.float64(-0.23333333333333334)],[1],[0],[0],[1.3736704170005396],['target'],1,001,2025-09-28_16h38.17.062,Visual Search Experiment,,2025.1.1,None,2025-09-28 16h38.24.032610 +0530,
85,0,85,[np.float64(0.48833333333333334)],[np.float64(-0.105)],[1],[0],[0],[2.646694041992305],['target'],85,0,85,0,148.29073383301147,,10,148.282420042,148.29073383301147,148.29073383301147,0.019806500000413507,150.92914654201013,[np.float64(0.48833333333333334)],[np.float64(-0.105)],[1],[0],[0],[2.646694041992305],['target'],1,001,2025-09-28_16h38.17.062,Visual Search Experiment,,2025.1.1,None,2025-09-28 16h38.24.032610 +0530,
86,0,86,[np.float64(0.08)],[np.float64(0.39)],[1],[0],[0],[2.132948458980536],['target'],86,0,86,0,150.9538112920127,,10,150.9467896670103,150.9538112920127,150.9538112920127,0.017462875024648383,153.0797882080078,[np.float64(0.08)],[np.float64(0.39)],[1],[0],[0],[2.132948458980536],['target'],1,001,2025-09-28_16h38.17.062,Visual Search Experiment,,2025.1.1,None,2025-09-28 16h38.24.032610 +0530,
87,0,87,[np.float64(0.085)],[np.float64(0.16)],[1],[0],[0],[1.0720634999743197],['target'],87,0,87,0,153.09648008301156,,5,153.09017662500264,153.09648008301156,153.09648008301156,0.010220708994893357,154.16230424999958,[np.float64(0.085)],[np.float64(0.16)],[1],[0],[0],[1.0720634999743197],['target'],1,001,2025-09-28_16h38.17.062,Visual Search Experiment,,2025.1.1,None,2025-09-28 16h38.24.032610 +0530,
88,0,88,[np.float64(0.3416666666666667)],[np.float64(-0.145)],[1],[0],[0],[1.039750500000082],['target'],88,0,88,0,154.18126191699412,,5,154.17446770801325,154.18126191699412,154.18126191699412,0.011990291008260101,155.21428733301582,[np.float64(0.3416666666666667)],[np.float64(-0.145)],[1],[0],[0],[1.039750500000082],['target'],1,001,2025-09-28_16h38.17.062,Visual Search Experiment,,2025.1.1,None,2025-09-28 16h38.24.032610 +0530,
89,0,89,[np.float64(0.32)],[np.float64(-0.07666666666666666)],[1],[0],[0],[0.7184790409810375],['target'],89,0,89,0,155.23438045801595,,5,155.22730508301174,155.23438045801595,155.23438045801595,0.01284904099884443,155.94584558301722,[np.float64(0.32)],[np.float64(-0.07666666666666666)],[1],[0],[0],[0.7184790409810375],['target'],1,001,2025-09-28_16h38.17.062,Visual Search Experiment,,2025.1.1,None,2025-09-28 16h38.24.032610 +0530,
90,0,90,[np.float64(0.32666666666666666)],[np.float64(0.485)],[1],[0],[0],[3.4787907499994617],['target'],90,0,90,0,155.97605379199376,,10,155.96722070800024,155.97605379199376,155.97605379199376,0.021216583001660183,159.44605120801134,[np.float64(0.32666666666666666)],[np.float64(0.485)],[1],[0],[0],[3.4787907499994617],['target'],1,001,2025-09-28_16h38.17.062,Visual Search Experiment,,2025.1.1,None,2025-09-28 16h38.24.032610 +0530,
91,0,91,[np.float64(0.435)],[np.float64(0.3233333333333333)],[1],[0],[0],[2.6137421670136973],['target'],91,0,91,0,159.47335795799154,,10,159.46574045799207,159.47335795799154,159.47335795799154,0.019529542012605816,162.07952958301757,[np.float64(0.435)],[np.float64(0.3233333333333333)],[1],[0],[0],[2.6137421670136973],['target'],1,001,2025-09-28_16h38.17.062,Visual Search Experiment,,2025.1.1,None,2025-09-28 16h38.24.032610 +0530,
92,0,92,[np.float64(0.4533333333333333)],[np.float64(0.20666666666666667)],[1],[0],[0],[0.8738272080081515],['target'],92,0,92,0,162.0965142500063,,5,162.09033845801605,162.0965142500063,162.0965142500063,0.010643292014719918,162.9642328750051,[np.float64(0.4533333333333333)],[np.float64(0.20666666666666667)],[1],[0],[0],[0.8738272080081515],['target'],1,001,2025-09-28_16h38.17.062,Visual Search Experiment,,2025.1.1,None,2025-09-28 16h38.24.032610 +0530,
93,0,93,[np.float64(0.4816666666666667)],[np.float64(-0.4033333333333333)],[1],[0],[0],[4.0105479580233805],['target'],93,0,93,0,162.99421383300796,,10,162.98523991700495,162.99421383300796,162.99421383300796,0.020835875009652227,166.99584920800407,[np.float64(0.4816666666666667)],[np.float64(-0.4033333333333333)],[1],[0],[0],[4.0105479580233805],['target'],1,001,2025-09-28_16h38.17.062,Visual Search Experiment,,2025.1.1,None,2025-09-28 16h38.24.032610 +0530,
94,0,94,[np.float64(-0.4116666666666667)],[np.float64(0.23166666666666666)],[1],[0],[0],[2.174991040985333],['target'],94,0,94,0,167.0126089999976,,5,167.0060537919926,167.0126089999976,167.0126089999976,0.010033082973677665,169.1811117499892,[np.float64(-0.4116666666666667)],[np.float64(0.23166666666666666)],[1],[0],[0],[2.174991040985333],['target'],1,001,2025-09-28_16h38.17.062,Visual Search Experiment,,2025.1.1,None,2025-09-28 16h38.24.032610 +0530,
95,0,95,[np.float64(-0.011666666666666667)],[np.float64(-0.37166666666666665)],[1],[0],[0],[2.742778540996369],['target'],95,0,95,0,169.2120219579956,,10,169.20296287501696,169.2120219579956,169.2120219579956,0.021674957999493927,171.94579537500977,[np.float64(-0.011666666666666667)],[np.float64(-0.37166666666666665)],[1],[0],[0],[2.742778540996369],['target'],1,001,2025-09-28_16h38.17.062,Visual Search Experiment,,2025.1.1,None,2025-09-28 16h38.24.032610 +0530,
96,0,96,[np.float64(-0.17666666666666667)],[np.float64(0.17)],[1],[0],[0],[1.9638184589857701],['target'],96,0,96,0,171.97351879201597,,10,171.9656227499945,171.97351879201597,171.97351879201597,0.019663625018438324,173.9294882499962,[np.float64(-0.17666666666666667)],[np.float64(0.17)],[1],[0],[0],[1.9638184589857701],['target'],1,001,2025-09-28_16h38.17.062,Visual Search Experiment,,2025.1.1,None,2025-09-28 16h38.24.032610 +0530,
97,0,97,[np.float64(0.495)],[np.float64(0.3983333333333333)],[1],[0],[0],[2.0713219589961227],['target'],97,0,97,0,173.9468590829929,,5,173.9405651249981,173.9468590829929,173.9468590829929,0.010915041988482699,176.01195829201606,[np.float64(0.495)],[np.float64(0.3983333333333333)],[1],[0],[0],[2.0713219589961227],['target'],1,001,2025-09-28_16h38.17.062,Visual Search Experiment,,2025.1.1,None,2025-09-28 16h38.24.032610 +0530,
98,0,98,[np.float64(-0.25666666666666665)],[np.float64(0.3933333333333333)],[1],[0],[0],[1.8640215840132441],['target'],98,0,98,0,176.04003487501177,,10,176.03143866700702,176.04003487501177,176.04003487501177,0.01932754198787734,177.89551150001353,[np.float64(-0.25666666666666665)],[np.float64(0.3933333333333333)],[1],[0],[0],[1.8640215840132441],['target'],1,001,2025-09-28_16h38.17.062,Visual Search Experiment,,2025.1.1,None,2025-09-28 16h38.24.032610 +0530,
99,0,99,[np.float64(0.19333333333333333)],[np.float64(0.27666666666666667)],[1],[0],[0],[1.6647499579994474],['target'],99,0,99,0,177.92199008300668,,10,177.9140339170117,177.92199008300668,177.92199008300668,0.018359457986662164,179.57883233300527,[np.float64(0.19333333333333333)],[np.float64(0.27666666666666667)],[1],[0],[0],[1.6647499579994474],['target'],1,001,2025-09-28_16h38.17.062,Visual Search Experiment,,2025.1.1,None,2025-09-28 16h38.24.032610 +0530,
100,0,100,[np.float64(0.19833333333333333)],[np.float64(-0.17833333333333334)],[1],[0],[0],[2.8397913750086445],['target'],100,0,100,0,179.59578141701058,,5,179.58945887500886,179.59578141701058,179.59578141701058,0.010463999991770834,182.42932891700184,[np.float64(0.19833333333333333)],[np.float64(-0.17833333333333334)],[1],[0],[0],[2.8397913750086445],['target'],1,001,2025-09-28_16h38.17.062,Visual Search Experiment,,2025.1.1,None,2025-09-28 16h38.24.032610 +0530,
101,0,101,[np.float64(-0.38666666666666666)],[np.float64(-0.405)],[1],[0],[0],[2.1041183339839336],['target'],101,0,101,0,182.44821841700468,,5,182.44135991699295,182.44821841700468,182.44821841700468,0.011850957991555333,184.54553845801274,[np.float64(-0.38666666666666666)],[np.float64(-0.405)],[1],[0],[0],[2.1041183339839336],['target'],1,001,2025-09-28_16h38.17.062,Visual Search Experiment,,2025.1.1,None,2025-09-28 16h38.24.032610 +0530,
102,0,102,[np.float64(0.16333333333333333)],[np.float64(0.4166666666666667)],[1],[0],[0],[2.5630244160129223],['target'],102,0,102,0,184.5745353329985,,10,184.5657370830013,184.5745353329985,184.5745353329985,0.020020458003273234,187.12880604199017,[np.float64(0.16333333333333333)],[np.float64(0.4166666666666667)],[1],[0],[0],[2.5630244160129223],['target'],1,001,2025-09-28_16h38.17.062,Visual Search Experiment,,2025.1.1,None,2025-09-28 16h38.24.032610 +0530,
103,0,103,[np.float64(-0.19166666666666668)],[np.float64(0.2783333333333333)],[1],[0],[0],[1.899415833002422],['target'],103,0,103,0,187.15535362501396,,10,187.1474534579902,187.15535362501396,187.15535362501396,0.018484750005882233,189.04691308300244,[np.float64(-0.19166666666666668)],[np.float64(0.2783333333333333)],[1],[0],[0],[1.899415833002422],['target'],1,001,2025-09-28_16h38.17.062,Visual Search Experiment,,2025.1.1,None,2025-09-28 16h38.24.032610 +0530,
104,0,104,[np.float64(0.42833333333333334)],[np.float64(0.31)],[1],[0],[0],[1.7464198329835199],['target'],104,0,104,0,189.07421483300277,,10,189.06634266700712,189.07421483300277,189.07421483300277,0.019272667006589472,190.8128051669919,[np.float64(0.42833333333333334)],[np.float64(0.31)],[1],[0],[0],[1.7464198329835199],['target'],1,001,2025-09-28_16h38.17.062,Visual Search Experiment,,2025.1.1,None,2025-09-28 16h38.24.032610 +0530,
105,0,105,[np.float64(0.235)],[np.float64(0.065)],[1],[0],[0],[1.4810810829803813],['target'],105,0,105,0,190.8400631250115,,10,190.8323296669987,190.8400631250115,190.8400631250115,0.019361083977855742,192.31344749999698,[np.float64(0.235)],[np.float64(0.065)],[1],[0],[0],[1.4810810829803813],['target'],1,001,2025-09-28_16h38.17.062,Visual Search Experiment,,2025.1.1,None,2025-09-28 16h38.24.032610 +0530,
106,0,106,[np.float64(-0.1)],[np.float64(0.4683333333333333)],[1],[0],[0],[2.18940858298447],['target'],106,0,106,0,192.32972470798995,,5,192.32352325000102,192.32972470798995,192.32972470798995,0.00994208300835453,194.5130075000052,[np.float64(-0.1)],[np.float64(0.4683333333333333)],[1],[0],[0],[2.18940858298447],['target'],1,001,2025-09-28_16h38.17.062,Visual Search Experiment,,2025.1.1,None,2025-09-28 16h38.24.032610 +0530,
107,0,107,[np.float64(0.31333333333333335)],[np.float64(0.3283333333333333)],[1],[0],[0],[2.1398047090042382],['target'],107,0,107,0,194.53136091699707,,5,194.52477379201446,194.53136091699707,194.53136091699707,0.011581458995351568,196.66464695800096,[np.float64(0.31333333333333335)],[np.float64(0.3283333333333333)],[1],[0],[0],[2.1398047090042382],['target'],1,001,2025-09-28_16h38.17.062,Visual Search Experiment,,2025.1.1,None,2025-09-28 16h38.24.032610 +0530,
108,0,108,[np.float64(0.445)],[np.float64(0.043333333333333335)],[1],[0],[0],[1.4765954999893438],['target'],108,0,108,0,196.69499691700912,,10,196.6860970830021,196.69499691700912,196.69499691700912,0.02127387499785982,198.16276291699614,[np.float64(0.445)],[np.float64(0.043333333333333335)],[1],[0],[0],[1.4765954999893438],['target'],1,001,2025-09-28_16h38.17.062,Visual Search Experiment,,2025.1.1,None,2025-09-28 16h38.24.032610 +0530,
109,0,109,[np.float64(0.26166666666666666)],[np.float64(0.12833333333333333)],[1],[0],[0],[1.1378699999768287],['target'],109,0,109,0,198.18106566701317,,5,198.17435283301165,198.18106566701317,198.18106566701317,0.011392915999749675,199.31228604199714,[np.float64(0.26166666666666666)],[np.float64(0.12833333333333333)],[1],[0],[0],[1.1378699999768287],['target'],1,001,2025-09-28_16h38.17.062,Visual Search Experiment,,2025.1.1,None,2025-09-28 16h38.24.032610 +0530,
110,0,110,[np.float64(-0.19166666666666668)],[np.float64(0.105)],[1],[0],[0],[1.4962695419962984],['target'],110,0,110,0,199.34157787499134,,10,199.33280133301741,199.34157787499134,199.34157787499134,0.02033891700557433,200.82911720799166,[np.float64(-0.19166666666666668)],[np.float64(0.105)],[1],[0],[0],[1.4962695419962984],['target'],1,001,2025-09-28_16h38.17.062,Visual Search Experiment,,2025.1.1,None,2025-09-28 16h38.24.032610 +0530,
111,0,111,[np.float64(-0.07833333333333334)],[np.float64(-0.20666666666666667)],[1],[0],[0],[2.340890749997925],['target'],111,0,111,0,200.8457307080098,,5,200.83934445801424,200.8457307080098,200.8457307080098,0.01005924999481067,203.1802949999983,[np.float64(-0.07833333333333334)],[np.float64(-0.20666666666666667)],[1],[0],[0],[2.340890749997925],['target'],1,001,2025-09-28_16h38.17.062,Visual Search Experiment,,2025.1.1,None,2025-09-28 16h38.24.032610 +0530,
112,0,112,[np.float64(0.28833333333333333)],[np.float64(0.065)],[1],[0],[0],[1.3934811250073835],['target'],112,0,112,0,203.21105591699597,,10,203.20239687501453,203.21105591699597,203.21105591699597,0.02194341699942015,204.5959210830042,[np.float64(0.28833333333333333)],[np.float64(0.065)],[1],[0],[0],[1.3934811250073835],['target'],1,001,2025-09-28_16h38.17.062,Visual Search Experiment,,2025.1.1,None,2025-09-28 16h38.24.032610 +0530,
113,0,113,[np.float64(-0.49)],[np.float64(-0.405)],[1],[0],[0],[1.9726840000075754],['target'],113,0,113,0,204.61251599999378,,5,204.6061960000079,204.61251599999378,204.61251599999378,0.010116749996086583,206.57896149999578,[np.float64(-0.49)],[np.float64(-0.405)],[1],[0],[0],[1.9726840000075754],['target'],1,001,2025-09-28_16h38.17.062,Visual Search Experiment,,2025.1.1,None,2025-09-28 16h38.24.032610 +0530,
114,0,114,[np.float64(0.2683333333333333)],[np.float64(0.2916666666666667)],[1],[0],[0],[2.8554909999947995],['target'],114,0,114,0,206.5977164999931,,5,206.59084275001078,206.5977164999931,206.5977164999931,0.011691166000673547,209.44639366699266,[np.float64(0.2683333333333333)],[np.float64(0.2916666666666667)],[1],[0],[0],[2.8554909999947995],['target'],1,001,2025-09-28_16h38.17.062,Visual Search Experiment,,2025.1.1,None,2025-09-28 16h38.24.032610 +0530,
115,0,115,[np.float64(-0.12333333333333334)],[np.float64(0.40166666666666667)],[1],[0],[0],[1.6219690419966355],['target'],115,0,115,0,209.46605887499754,,5,209.45920670800842,209.46605887499754,209.46605887499754,0.0126283340214286,211.08124324999517,[np.float64(-0.12333333333333334)],[np.float64(0.40166666666666667)],[1],[0],[0],[1.6219690419966355],['target'],1,001,2025-09-28_16h38.17.062,Visual Search Experiment,,2025.1.1,None,2025-09-28 16h38.24.032610 +0530,
116,0,116,[np.float64(0.44666666666666666)],[np.float64(-0.37166666666666665)],[1],[0],[0],[1.7683639169845264],['target'],116,0,116,0,211.10131845800788,,5,211.09399916700204,211.10131845800788,211.10131845800788,0.012590208993060514,212.86241362500004,[np.float64(0.44666666666666666)],[np.float64(-0.37166666666666665)],[1],[0],[0],[1.7683639169845264],['target'],1,001,2025-09-28_16h38.17.062,Visual Search Experiment,,2025.1.1,None,2025-09-28 16h38.24.032610 +0530,
117,0,117,[np.float64(-0.09833333333333333)],[np.float64(0.14)],[1],[0],[0],[1.9055958339886274],['target'],117,0,117,0,212.88053708299412,,5,212.87386883300496,212.88053708299412,212.88053708299412,0.01131795800756663,214.7795425830118,[np.float64(-0.09833333333333333)],[np.float64(0.14)],[1],[0],[0],[1.9055958339886274],['target'],1,001,2025-09-28_16h38.17.062,Visual Search Experiment,,2025.1.1,None,2025-09-28 16h38.24.032610 +0530,
118,0,118,[np.float64(-0.051666666666666666)],[np.float64(0.15)],[1],[0],[0],[0.7388444579846691],['target'],118,0,118,0,214.79895962501178,,5,214.79191487500793,214.79895962501178,214.79895962501178,0.012193750008009374,215.5308197500126,[np.float64(-0.051666666666666666)],[np.float64(0.15)],[1],[0],[0],[0.7388444579846691],['target'],1,001,2025-09-28_16h38.17.062,Visual Search Experiment,,2025.1.1,None,2025-09-28 16h38.24.032610 +0530,
119,0,119,[np.float64(-0.415)],[np.float64(-0.056666666666666664)],[1],[0],[0],[1.3936922920111101],['target'],119,0,119,0,215.56027670801268,,10,215.55188462499063,215.56027670801268,215.56027670801268,0.020901250012684613,216.94564087499748,[np.float64(-0.415)],[np.float64(-0.056666666666666664)],[1],[0],[0],[1.3936922920111101],['target'],1,001,2025-09-28_16h38.17.062,Visual Search Experiment,,2025.1.1,None,2025-09-28 16h38.24.032610 +0530,
120,0,120,[np.float64(-0.12333333333333334)],[np.float64(0.25333333333333335)],[1],[0],[0],[1.465639916015789],['target'],120,0,120,0,216.97088662500028,,10,216.96366845798912,216.97088662500028,216.97088662500028,0.017889375012600794,218.42935058299918,[np.float64(-0.12333333333333334)],[np.float64(0.25333333333333335)],[1],[0],[0],[1.465639916015789],['target'],1,001,2025-09-28_16h38.17.062,Visual Search Experiment,,2025.1.1,None,2025-09-28 16h38.24.032610 +0530,
121,0,121,[np.float64(0.44)],[np.float64(-0.028333333333333332)],[1],[0],[0],[2.540572541009169],['target'],121,0,121,0,218.44636375000118,,5,218.4401210419892,218.44636375000118,218.44636375000118,0.010608208016492426,220.9807570000121,[np.float64(0.44)],[np.float64(-0.028333333333333332)],[1],[0],[0],[2.540572541009169],['target'],1,001,2025-09-28_16h38.17.062,Visual Search Experiment,,2025.1.1,None,2025-09-28 16h38.24.032610 +0530,
122,0,122,[np.float64(-0.14666666666666667)],[np.float64(0.10333333333333333)],[1],[0],[0],[1.5692638749897014],['target'],122,0,122,0,221.0002542079892,,5,220.9934644169989,221.0002542079892,221.0002542079892,0.012546542013296857,222.56280029201298,[np.float64(-0.14666666666666667)],[np.float64(0.10333333333333333)],[1],[0],[0],[1.5692638749897014],['target'],1,001,2025-09-28_16h38.17.062,Visual Search Experiment,,2025.1.1,None,2025-09-28 16h38.24.032610 +0530,
123,0,123,[np.float64(-0.36333333333333334)],[np.float64(0.3933333333333333)],[1],[0],[0],[3.944588542013662],['target'],123,0,123,0,222.59381366701564,,10,222.5847466670093,222.59381366701564,222.59381366701564,0.021766291989479214,226.529389000003,[np.float64(-0.36333333333333334)],[np.float64(0.3933333333333333)],[1],[0],[0],[3.944588542013662],['target'],1,001,2025-09-28_16h38.17.062,Visual Search Experiment,,2025.1.1,None,2025-09-28 16h38.24.032610 +0530,
124,0,124,[np.float64(0.4066666666666667)],[np.float64(-0.2833333333333333)],[1],[0],[0],[1.8315392500080634],['target'],124,0,124,0,226.55523554200772,,10,226.54783595801564,226.55523554200772,226.55523554200772,0.01827995799249038,228.37942845799262,[np.float64(0.4066666666666667)],[np.float64(-0.2833333333333333)],[1],[0],[0],[1.8315392500080634],['target'],1,001,2025-09-28_16h38.17.062,Visual Search Experiment,,2025.1.1,None,2025-09-28 16h38.24.032610 +0530,
125,0,125,[np.float64(-0.12166666666666667)],[np.float64(-0.22166666666666668)],[1],[0],[0],[1.4718102079932578],['target'],125,0,125,0,228.39681295800256,,5,228.39037045801524,228.39681295800256,228.39681295800256,0.010780915996292606,229.86223566700937,[np.float64(-0.12166666666666667)],[np.float64(-0.22166666666666668)],[1],[0],[0],[1.4718102079932578],['target'],1,001,2025-09-28_16h38.17.062,Visual Search Experiment,,2025.1.1,None,2025-09-28 16h38.24.032610 +0530,
126,0,126,[np.float64(0.21)],[np.float64(0.06)],[1],[0],[0],[1.0883997500059195],['target'],126,0,126,0,229.88029841700336,,5,229.8735704580031,229.88029841700336,229.88029841700336,0.011196665989700705,230.9620313750056,[np.float64(0.21)],[np.float64(0.06)],[1],[0],[0],[1.0883997500059195],['target'],1,001,2025-09-28_16h38.17.062,Visual Search Experiment,,2025.1.1,None,2025-09-28 16h38.24.032610 +0530,
127,0,127,[np.float64(0.49833333333333335)],[np.float64(-0.3466666666666667)],[1],[0],[0],[1.4634357919858303],['target'],127,0,127,0,230.9907925419975,,10,230.98241158301244,230.9907925419975,230.9907925419975,0.020221082988427952,232.44588716700673,[np.float64(0.49833333333333335)],[np.float64(-0.3466666666666667)],[1],[0],[0],[1.4634357919858303],['target'],1,001,2025-09-28_16h38.17.062,Visual Search Experiment,,2025.1.1,None,2025-09-28 16h38.24.032610 +0530,
128,0,128,[np.float64(0.32166666666666666)],[np.float64(-0.13333333333333333)],[1],[0],[0],[1.9388067919935565],['target'],128,0,128,0,232.46326587500516,,5,232.45683141701738,232.46326587500516,232.46326587500516,0.010790291999001056,234.39570625001215,[np.float64(0.32166666666666666)],[np.float64(-0.13333333333333333)],[1],[0],[0],[1.9388067919935565],['target'],1,001,2025-09-28_16h38.17.062,Visual Search Experiment,,2025.1.1,None,2025-09-28 16h38.24.032610 +0530,
129,0,129,[np.float64(-0.018333333333333333)],[np.float64(0.011666666666666667)],[1],[0],[0],[3.8379889169882517],['target'],129,0,129,0,234.41499183300766,,5,234.40803441699245,234.41499183300766,234.41499183300766,0.012154750002082437,238.24608833299135,[np.float64(-0.018333333333333333)],[np.float64(0.011666666666666667)],[1],[0],[0],[3.8379889169882517],['target'],1,001,2025-09-28_16h38.17.062,Visual Search Experiment,,2025.1.1,None,2025-09-28 16h38.24.032610 +0530,
130,0,130,[np.float64(0.035)],[np.float64(-0.47)],[1],[0],[0],[2.327983374998439],['target'],130,0,130,0,238.2762462499959,,10,238.26738387500518,238.2762462499959,238.2762462499959,0.021111375011969358,240.59540237500914,[np.float64(0.035)],[np.float64(-0.47)],[1],[0],[0],[2.327983374998439],['target'],1,001,2025-09-28_16h38.17.062,Visual Search Experiment,,2025.1.1,None,2025-09-28 16h38.24.032610 +0530,
131,0,131,[np.float64(0.4266666666666667)],[np.float64(0.365)],[1],[0],[0],[1.9233864999841899],['target'],131,0,131,0,240.61208620801335,,5,240.60548333299812,240.61208620801335,240.61208620801335,0.009945166995748878,242.5289422920032,[np.float64(0.4266666666666667)],[np.float64(0.365)],[1],[0],[0],[1.9233864999841899],['target'],1,001,2025-09-28_16h38.17.062,Visual Search Experiment,,2025.1.1,None,2025-09-28 16h38.24.032610 +0530,
132,0,132,[np.float64(0.4866666666666667)],[np.float64(0.29)],[1],[0],[0],[1.071316416026093],['target'],132,0,132,0,242.54805445799138,,5,242.54103316701367,242.54805445799138,242.54805445799138,0.01190641598077491,243.6124220000056,[np.float64(0.4866666666666667)],[np.float64(0.29)],[1],[0],[0],[1.071316416026093],['target'],1,001,2025-09-28_16h38.17.062,Visual Search Experiment,,2025.1.1,None,2025-09-28 16h38.24.032610 +0530,
133,0,133,[np.float64(0.0016666666666666668)],[np.float64(-0.03833333333333333)],[1],[0],[0],[1.2208415000059176],['target'],133,0,133,0,243.63073925001663,,5,243.62411304199486,243.63073925001663,243.63073925001663,0.011519166990183294,244.84500116700656,[np.float64(0.0016666666666666668)],[np.float64(-0.03833333333333333)],[1],[0],[0],[1.2208415000059176],['target'],1,001,2025-09-28_16h38.17.062,Visual Search Experiment,,2025.1.1,None,2025-09-28 16h38.24.032610 +0530,
134,0,134,[np.float64(-0.03833333333333333)],[np.float64(-0.45166666666666666)],[1],[0],[0],[1.672482541995123],['target'],134,0,134,0,244.86296625001705,,5,244.8565251250111,244.86296625001705,244.86296625001705,0.011388374987291172,246.52907162500196,[np.float64(-0.03833333333333333)],[np.float64(-0.45166666666666666)],[1],[0],[0],[1.672482541995123],['target'],1,001,2025-09-28_16h38.17.062,Visual Search Experiment,,2025.1.1,None,2025-09-28 16h38.24.032610 +0530,
135,0,135,[np.float64(-0.21666666666666667)],[np.float64(-0.31666666666666665)],[1],[0],[0],[1.521359415986808],['target'],135,0,135,0,246.54900400000042,,5,246.54203441701247,246.54900400000042,246.54900400000042,0.012795666989404708,248.06345241700183,[np.float64(-0.21666666666666667)],[np.float64(-0.31666666666666665)],[1],[0],[0],[1.521359415986808],['target'],1,001,2025-09-28_16h38.17.062,Visual Search Experiment,,2025.1.1,None,2025-09-28 16h38.24.032610 +0530,
136,0,136,[np.float64(0.14833333333333334)],[np.float64(-0.23666666666666666)],[1],[0],[0],[1.493623583985027],['target'],136,0,136,0,248.09454508300405,,10,248.08562658299343,248.09454508300405,248.09454508300405,0.02201104100095108,249.57929204200627,[np.float64(0.14833333333333334)],[np.float64(-0.23666666666666666)],[1],[0],[0],[1.493623583985027],['target'],1,001,2025-09-28_16h38.17.062,Visual Search Experiment,,2025.1.1,None,2025-09-28 16h38.24.032610 +0530,
137,0,137,[np.float64(-0.08833333333333333)],[np.float64(0.165)],[1],[0],[0],[3.2897878339863382],['target'],137,0,137,0,249.59659645799547,,5,249.58992687499267,249.59659645799547,249.59659645799547,0.010469875007402152,252.8797788330121,[np.float64(-0.08833333333333333)],[np.float64(0.165)],[1],[0],[0],[3.2897878339863382],['target'],1,001,2025-09-28_16h38.17.062,Visual Search Experiment,,2025.1.1,None,2025-09-28 16h38.24.032610 +0530,
138,0,138,[np.float64(0.11833333333333333)],[np.float64(-0.37833333333333335)],[1],[0],[0],[1.7298000000009779],['target'],138,0,138,0,252.90722091699718,,10,252.89923954199185,252.90722091699718,252.90722091699718,0.01931087498087436,254.62908825001796,[np.float64(0.11833333333333333)],[np.float64(-0.37833333333333335)],[1],[0],[0],[1.7298000000009779],['target'],1,001,2025-09-28_16h38.17.062,Visual Search Experiment,,2025.1.1,None,2025-09-28 16h38.24.032610 +0530,
139,0,139,[np.float64(0.39)],[np.float64(-0.13333333333333333)],[1],[0],[0],[1.4140736250265036],['target'],139,0,139,0,254.65624825001578,,10,254.64837204199284,254.65624825001578,254.65624825001578,0.019124415994156152,256.0624897920061,[np.float64(0.39)],[np.float64(-0.13333333333333333)],[1],[0],[0],[1.4140736250265036],['target'],1,001,2025-09-28_16h38.17.062,Visual Search Experiment,,2025.1.1,None,2025-09-28 16h38.24.032610 +0530,
140,0,140,[np.float64(-0.165)],[np.float64(-0.06166666666666667)],[1],[0],[0],[1.2378521659993567],['target'],140,0,140,0,256.0806120420166,,5,256.07421433299896,256.0806120420166,256.0806120420166,0.011532332981005311,257.3121152500098,[np.float64(-0.165)],[np.float64(-0.06166666666666667)],[1],[0],[0],[1.2378521659993567],['target'],1,001,2025-09-28_16h38.17.062,Visual Search Experiment,,2025.1.1,None,2025-09-28 16h38.24.032610 +0530,
141,0,141,[np.float64(-0.37)],[np.float64(-0.3333333333333333)],[1],[0],[0],[1.9805757080030162],['target'],141,0,141,0,257.33957029200974,,10,257.331742667011,257.33957029200974,257.33957029200974,0.019497166998917237,259.3123711250082,[np.float64(-0.37)],[np.float64(-0.3333333333333333)],[1],[0],[0],[1.9805757080030162],['target'],1,001,2025-09-28_16h38.17.062,Visual Search Experiment,,2025.1.1,None,2025-09-28 16h38.24.032610 +0530,
142,0,142,[np.float64(0.2633333333333333)],[np.float64(-0.095)],[1],[0],[0],[1.3072182920004707],['target'],142,0,142,0,259.3286326669913,,5,259.32262366701616,259.3286326669913,259.3286326669913,0.01009104200056754,260.6299053330149,[np.float64(0.2633333333333333)],[np.float64(-0.095)],[1],[0],[0],[1.3072182920004707],['target'],1,001,2025-09-28_16h38.17.062,Visual Search Experiment,,2025.1.1,None,2025-09-28 16h38.24.032610 +0530,
143,0,143,[np.float64(0.22666666666666666)],[np.float64(0.2633333333333333)],[1],[0],[0],[2.187273625022499],['target'],143,0,143,0,260.6494723329961,,5,260.64257587501197,260.6494723329961,260.6494723329961,0.012497916002757847,262.8299241249915,[np.float64(0.22666666666666666)],[np.float64(0.2633333333333333)],[1],[0],[0],[2.187273625022499],['target'],1,001,2025-09-28_16h38.17.062,Visual Search Experiment,,2025.1.1,None,2025-09-28 16h38.24.032610 +0530,
144,0,144,[np.float64(0.11)],[np.float64(0.33166666666666667)],[1],[0],[0],[2.1606323330197483],['target'],144,0,144,0,262.8596968750062,,10,262.85117520799395,262.8596968750062,262.8596968750062,0.02106616599485278,265.0118406669935,[np.float64(0.11)],[np.float64(0.33166666666666667)],[1],[0],[0],[2.1606323330197483],['target'],1,001,2025-09-28_16h38.17.062,Visual Search Experiment,,2025.1.1,None,2025-09-28 16h38.24.032610 +0530,
145,0,145,[np.float64(-0.30666666666666664)],[np.float64(-0.34)],[1],[0],[0],[1.850702249997994],['target'],145,0,145,0,265.03555370800314,,10,265.0286644579901,265.03555370800314,265.03555370800314,0.016687166993506253,266.87940987499314,[np.float64(-0.30666666666666664)],[np.float64(-0.34)],[1],[0],[0],[1.850702249997994],['target'],1,001,2025-09-28_16h38.17.062,Visual Search Experiment,,2025.1.1,None,2025-09-28 16h38.24.032610 +0530,
146,0,146,[np.float64(-0.24166666666666667)],[np.float64(-0.2816666666666667)],[1],[0],[0],[0.9826643750129733],['target'],146,0,146,0,266.90394487499725,,10,266.89651712501654,266.90394487499725,266.90394487499725,0.016968540992820635,267.8792295420135,[np.float64(-0.24166666666666667)],[np.float64(-0.2816666666666667)],[1],[0],[0],[0.9826643750129733],['target'],1,001,2025-09-28_16h38.17.062,Visual Search Experiment,,2025.1.1,None,2025-09-28 16h38.24.032610 +0530,
147,0,147,[np.float64(-0.15)],[np.float64(-0.10166666666666667)],[1],[0],[0],[0.9654460420133546],['target'],147,0,147,0,267.90454362501623,,10,267.89730320801027,267.90454362501623,267.90454362501623,0.017911125003593042,268.8627907920163,[np.float64(-0.15)],[np.float64(-0.10166666666666667)],[1],[0],[0],[0.9654460420133546],['target'],1,001,2025-09-28_16h38.17.062,Visual Search Experiment,,2025.1.1,None,2025-09-28 16h38.24.032610 +0530,
148,0,148,[np.float64(-0.37166666666666665)],[np.float64(-0.17833333333333334)],[1],[0],[0],[1.0145741669985],['target'],148,0,148,0,268.8893255419971,,10,268.8815147500136,268.8893255419971,268.8893255419971,0.018561541015515104,269.896135707997,[np.float64(-0.37166666666666665)],[np.float64(-0.17833333333333334)],[1],[0],[0],[1.0145741669985],['target'],1,001,2025-09-28_16h38.17.062,Visual Search Experiment,,2025.1.1,None,2025-09-28 16h38.24.032610 +0530,
149,0,149,[np.float64(0.13333333333333333)],[np.float64(0.05)],[1],[0],[0],[1.331733416998759],['target'],149,0,149,0,269.9204952500004,,10,269.913400874997,269.9204952500004,269.9204952500004,0.01711929199518636,271.24517316700076,[np.float64(0.13333333333333333)],[np.float64(0.05)],[1],[0],[0],[1.331733416998759],['target'],1,001,2025-09-28_16h38.17.062,Visual Search Experiment,,2025.1.1,None,2025-09-28 16h38.24.032610 +0530,
150,0,150,[np.float64(0.3516666666666667)],[np.float64(-0.04666666666666667)],[1],[0],[0],[1.040333249984542],['target'],150,0,150,0,271.2610343749984,,5,271.2547975000052,271.2610343749984,271.2610343749984,0.009486042021308094,272.29519429200445,[np.float64(0.3516666666666667)],[np.float64(-0.04666666666666667)],[1],[0],[0],[1.040333249984542],['target'],1,001,2025-09-28_16h38.17.062,Visual Search Experiment,,2025.1.1,None,2025-09-28 16h38.24.032610 +0530,
151,0,151,[np.float64(-0.19333333333333333)],[np.float64(0.295)],[1],[0],[0],[2.8869159590103664],['target'],151,0,151,0,272.31467354201595,,5,272.3076856250118,272.31467354201595,272.31467354201595,0.012321667018113658,275.1946510830021,[np.float64(-0.19333333333333333)],[np.float64(0.295)],[1],[0],[0],[2.8869159590103664],['target'],1,001,2025-09-28_16h38.17.062,Visual Search Experiment,,2025.1.1,None,2025-09-28 16h38.24.032610 +0530,
152,0,152,[np.float64(0.09666666666666666)],[np.float64(-0.4766666666666667)],[1],[0],[0],[1.6065731669950765],['target'],152,0,152,0,275.2123225000105,,5,275.2056888329971,275.2123225000105,275.2123225000105,0.010903499991400167,276.81232600001385,[np.float64(0.09666666666666666)],[np.float64(-0.4766666666666667)],[1],[0],[0],[1.6065731669950765],['target'],1,001,2025-09-28_16h38.17.062,Visual Search Experiment,,2025.1.1,None,2025-09-28 16h38.24.032610 +0530,
153,0,153,[np.float64(0.058333333333333334)],[np.float64(-0.42)],[1],[0],[0],[0.8457520419906359],['target'],153,0,153,0,276.84117525001056,,10,276.83217112501734,276.84117525001056,276.84117525001056,0.019674459006637335,277.67795991699677,[np.float64(0.058333333333333334)],[np.float64(-0.42)],[1],[0],[0],[0.8457520419906359],['target'],1,001,2025-09-28_16h38.17.062,Visual Search Experiment,,2025.1.1,None,2025-09-28 16h38.24.032610 +0530,
154,0,154,[np.float64(-0.06833333333333333)],[np.float64(-0.01)],[1],[0],[0],[1.4675869169877842],['target'],154,0,154,0,277.70211808299064,,10,277.69497333301115,277.70211808299064,277.70211808299064,0.016878041002200916,279.1626117080159,[np.float64(-0.06833333333333333)],[np.float64(-0.01)],[1],[0],[0],[1.4675869169877842],['target'],1,001,2025-09-28_16h38.17.062,Visual Search Experiment,,2025.1.1,None,2025-09-28 16h38.24.032610 +0530,
155,0,155,[np.float64(-0.14666666666666667)],[np.float64(0.37833333333333335)],[1],[0],[0],[2.4067692079988774],['target'],155,0,155,0,279.18064916701405,,5,279.17394141701516,279.18064916701405,279.18064916701405,0.011176416010130197,281.5807773330016,[np.float64(-0.14666666666666667)],[np.float64(0.37833333333333335)],[1],[0],[0],[2.4067692079988774],['target'],1,001,2025-09-28_16h38.17.062,Visual Search Experiment,,2025.1.1,None,2025-09-28 16h38.24.032610 +0530,
156,0,156,[np.float64(0.16833333333333333)],[np.float64(-0.2816666666666667)],[1],[0],[0],[3.3035535420058295],['target'],156,0,156,0,281.60090887499973,,5,281.5938396670099,281.60090887499973,281.60090887499973,0.012890250014606863,284.89745645801304,[np.float64(0.16833333333333333)],[np.float64(-0.2816666666666667)],[1],[0],[0],[3.3035535420058295],['target'],1,001,2025-09-28_16h38.17.062,Visual Search Experiment,,2025.1.1,None,2025-09-28 16h38.24.032610 +0530,
157,0,157,[np.float64(0.40166666666666667)],[np.float64(-0.46166666666666667)],[1],[0],[0],[2.526517000020249],['target'],157,0,157,0,284.9280185830139,,10,284.9190895000065,284.9280185830139,284.9280185830139,0.02147404200513847,287.4456510420132,[np.float64(0.40166666666666667)],[np.float64(-0.46166666666666667)],[1],[0],[0],[2.526517000020249],['target'],1,001,2025-09-28_16h38.17.062,Visual Search Experiment,,2025.1.1,None,2025-09-28 16h38.24.032610 +0530,
158,0,158,[np.float64(-0.15)],[np.float64(0.22666666666666666)],[1],[0],[0],[2.615131291997386],['target'],158,0,158,0,287.4724412919895,,10,287.46419929200783,287.4724412919895,287.4724412919895,0.018372624996118248,290.0793790000025,[np.float64(-0.15)],[np.float64(0.22666666666666666)],[1],[0],[0],[2.615131291997386],['target'],1,001,2025-09-28_16h38.17.062,Visual Search Experiment,,2025.1.1,None,2025-09-28 16h38.24.032610 +0530,
159,0,159,[np.float64(0.195)],[np.float64(0.15166666666666667)],[1],[0],[0],[1.0562001669895835],['target'],159,0,159,0,290.09601541701704,,5,290.0895830829977,290.09601541701704,290.09601541701704,0.010040875000413507,291.1458476250118,[np.float64(0.195)],[np.float64(0.15166666666666667)],[1],[0],[0],[1.0562001669895835],['target'],1,001,2025-09-28_16h38.17.062,Visual Search Experiment,,2025.1.1,None,2025-09-28 16h38.24.032610 +0530,
160,0,160,[np.float64(-0.375)],[np.float64(-0.2916666666666667)],[1],[0],[0],[2.704931124986615],['target'],160,0,160,0,291.164464750007,,5,291.1574664170039,291.164464750007,291.164464750007,0.011442832998000085,293.86246274999576,[np.float64(-0.375)],[np.float64(-0.2916666666666667)],[1],[0],[0],[2.704931124986615],['target'],1,001,2025-09-28_16h38.17.062,Visual Search Experiment,,2025.1.1,None,2025-09-28 16h38.24.032610 +0530,
161,0,161,[np.float64(-0.43333333333333335)],[np.float64(0.1)],[1],[0],[0],[1.7454116250155494],['target'],161,0,161,0,293.89260170800844,,10,293.88354458299,293.89260170800844,293.89260170800844,0.02090920801856555,295.62899858300807,[np.float64(-0.43333333333333335)],[np.float64(0.1)],[1],[0],[0],[1.7454116250155494],['target'],1,001,2025-09-28_16h38.17.062,Visual Search Experiment,,2025.1.1,None,2025-09-28 16h38.24.032610 +0530,
162,0,162,[np.float64(0.49166666666666664)],[np.float64(0.375)],[1],[0],[0],[2.1064050419954583],['target'],162,0,162,0,295.6458834579971,,5,295.6395461249922,295.6458834579971,295.6458834579971,0.010377124999649823,297.74602087499807,[np.float64(0.49166666666666664)],[np.float64(0.375)],[1],[0],[0],[2.1064050419954583],['target'],1,001,2025-09-28_16h38.17.062,Visual Search Experiment,,2025.1.1,None,2025-09-28 16h38.24.032610 +0530,
163,0,163,[np.float64(-0.41333333333333333)],[np.float64(-0.47833333333333333)],[1],[0],[0],[2.192445749999024],['target'],163,0,163,0,297.8093384169915,,5,297.8047880830127,297.8093384169915,297.8093384169915,0.05858024998451583,299.9972960000159,[np.float64(-0.41333333333333333)],[np.float64(-0.47833333333333333)],[1],[0],[0],[2.192445749999024],['target'],1,001,2025-09-28_16h38.17.062,Visual Search Experiment,,2025.1.1,None,2025-09-28 16h38.24.032610 +0530,
164,0,164,[np.float64(0.04)],[np.float64(0.3283333333333333)],[1],[0],[0],[1.5016409579839092],['target'],164,0,164,0,300.0174445830053,,5,300.01049708301434,300.0174445830053,300.0174445830053,0.013043791987001896,301.51219720800873,[np.float64(0.04)],[np.float64(0.3283333333333333)],[1],[0],[0],[1.5016409579839092],['target'],1,001,2025-09-28_16h38.17.062,Visual Search Experiment,,2025.1.1,None,2025-09-28 16h38.24.032610 +0530,
165,0,165,[np.float64(-0.12666666666666668)],[np.float64(-0.21)],[1],[0],[0],[2.004716916999314],['target'],165,0,165,0,301.5321054169908,,5,301.52500912500545,301.5321054169908,301.5321054169908,0.012642750021768734,303.5297868750058,[np.float64(-0.12666666666666668)],[np.float64(-0.21)],[1],[0],[0],[2.004716916999314],['target'],1,001,2025-09-28_16h38.17.062,Visual Search Experiment,,2025.1.1,None,2025-09-28 16h38.24.032610 +0530,
166,0,166,[np.float64(0.18333333333333332)],[np.float64(0.19)],[1],[0],[0],[1.4442897920089308],['target'],166,0,166,0,303.5599170830101,,10,303.5509865829954,303.5599170830101,303.5599170830101,0.021025041991379112,304.9953213330009,[np.float64(0.18333333333333332)],[np.float64(0.19)],[1],[0],[0],[1.4442897920089308],['target'],1,001,2025-09-28_16h38.17.062,Visual Search Experiment,,2025.1.1,None,2025-09-28 16h38.24.032610 +0530,
167,0,167,[np.float64(0.42333333333333334)],[np.float64(-0.4166666666666667)],[1],[0],[0],[1.4407215410028584],['target'],167,0,167,0,305.01103670799057,,5,305.00480675001745,305.01103670799057,305.01103670799057,0.0093324999907054,306.44559116699384,[np.float64(0.42333333333333334)],[np.float64(-0.4166666666666667)],[1],[0],[0],[1.4407215410028584],['target'],1,001,2025-09-28_16h38.17.062,Visual Search Experiment,,2025.1.1,None,2025-09-28 16h38.24.032610 +0530,
168,0,168,[np.float64(-0.016666666666666666)],[np.float64(0.175)],[1],[0],[0],[1.7374347919831052],['target'],168,0,168,0,306.46481583299465,,5,306.4580022919981,306.46481583299465,306.46481583299465,0.012240541982464492,308.1954987499921,[np.float64(-0.016666666666666666)],[np.float64(0.175)],[1],[0],[0],[1.7374347919831052],['target'],1,001,2025-09-28_16h38.17.062,Visual Search Experiment,,2025.1.1,None,2025-09-28 16h38.24.032610 +0530,
169,0,169,[np.float64(0.3516666666666667)],[np.float64(-0.035)],[1],[0],[0],[1.2949414160102606],['target'],169,0,169,0,308.2260865420103,,10,308.2172515830025,308.2260865420103,308.2260865420103,0.02158329202211462,309.5122275419999,[np.float64(0.3516666666666667)],[np.float64(-0.035)],[1],[0],[0],[1.2949414160102606],['target'],1,001,2025-09-28_16h38.17.062,Visual Search Experiment,,2025.1.1,None,2025-09-28 16h38.24.032610 +0530,
170,0,170,[np.float64(0.42333333333333334)],[np.float64(-0.43666666666666665)],[1],[0],[0],[3.3657695000001695],['target'],170,0,170,0,309.5363591670175,,10,309.52936862499337,309.5363591670175,309.5363591670175,0.017008958995575085,312.8951866670104,[np.float64(0.42333333333333334)],[np.float64(-0.43666666666666665)],[1],[0],[0],[3.3657695000001695],['target'],1,001,2025-09-28_16h38.17.062,Visual Search Experiment,,2025.1.1,None,2025-09-28 16h38.24.032610 +0530,
171,0,171,[np.float64(-0.3616666666666667)],[np.float64(0.485)],[1],[0],[0],[3.7833163749892265],['target'],171,0,171,0,312.9197765830031,,10,312.9126465000154,312.9197765830031,312.9197765830031,0.017295583005761728,316.6960263749934,[np.float64(-0.3616666666666667)],[np.float64(0.485)],[1],[0],[0],[3.7833163749892265],['target'],1,001,2025-09-28_16h38.17.062,Visual Search Experiment,,2025.1.1,None,2025-09-28 16h38.24.032610 +0530,
172,0,172,[np.float64(0.44)],[np.float64(-0.015)],[1],[0],[0],[1.321447124995757],['target'],172,0,172,0,316.7136472919956,,5,316.70716150000226,316.7136472919956,316.7136472919956,0.010969249997287989,318.0286586250004,[np.float64(0.44)],[np.float64(-0.015)],[1],[0],[0],[1.321447124995757],['target'],1,001,2025-09-28_16h38.17.062,Visual Search Experiment,,2025.1.1,None,2025-09-28 16h38.24.032610 +0530,
173,0,173,[np.float64(-0.30333333333333334)],[np.float64(-0.06)],[1],[0],[0],[2.105358625005465],['target'],173,0,173,0,318.04651887499494,,5,318.039891249995,318.04651887499494,318.04651887499494,0.0111007499799598,320.14530483301496,[np.float64(-0.30333333333333334)],[np.float64(-0.06)],[1],[0],[0],[2.105358625005465],['target'],1,001,2025-09-28_16h38.17.062,Visual Search Experiment,,2025.1.1,None,2025-09-28 16h38.24.032610 +0530,
174,0,174,[np.float64(0.44333333333333336)],[np.float64(0.095)],[1],[0],[0],[1.6149572499853093],['target'],174,0,174,0,320.17246129200794,,10,320.16486066699144,320.17246129200794,320.17246129200794,0.019423124991590157,321.7798608750163,[np.float64(0.44333333333333336)],[np.float64(0.095)],[1],[0],[0],[1.6149572499853093],['target'],1,001,2025-09-28_16h38.17.062,Visual Search Experiment,,2025.1.1,None,2025-09-28 16h38.24.032610 +0530,
175,0,175,[np.float64(0.028333333333333332)],[np.float64(-0.4666666666666667)],[1],[0],[0],[2.7970503750257194],['target'],175,0,175,0,321.80733016700833,,10,321.79879612498917,321.80733016700833,321.80733016700833,0.01877741698990576,324.595892250014,[np.float64(0.028333333333333332)],[np.float64(-0.4666666666666667)],[1],[0],[0],[2.7970503750257194],['target'],1,001,2025-09-28_16h38.17.062,Visual Search Experiment,,2025.1.1,None,2025-09-28 16h38.24.032610 +0530,
176,0,176,[np.float64(0.42)],[np.float64(-0.02666666666666667)],[1],[0],[0],[2.14772179099964],['target'],176,0,176,0,324.62316837499384,,10,324.6148624579946,324.62316837499384,324.62316837499384,0.018800334015395492,326.7626322080032,[np.float64(0.42)],[np.float64(-0.02666666666666667)],[1],[0],[0],[2.14772179099964],['target'],1,001,2025-09-28_16h38.17.062,Visual Search Experiment,,2025.1.1,None,2025-09-28 16h38.24.032610 +0530,
177,0,177,[np.float64(-0.09333333333333334)],[np.float64(-0.08333333333333333)],[1],[0],[0],[1.6969411249738187],['target'],177,0,177,0,326.789825542015,,10,326.7819267080049,326.789825542015,326.789825542015,0.01912587499828078,328.4789040000178,[np.float64(-0.09333333333333334)],[np.float64(-0.08333333333333333)],[1],[0],[0],[1.6969411249738187],['target'],1,001,2025-09-28_16h38.17.062,Visual Search Experiment,,2025.1.1,None,2025-09-28 16h38.24.032610 +0530,
178,0,178,[np.float64(0.2916666666666667)],[np.float64(-0.27666666666666667)],[1],[0],[0],[1.5823295419977512],['target'],178,0,178,0,328.5037592079898,,10,328.49672337499214,328.5037592079898,328.5037592079898,0.01767462497809902,330.07909908299916,[np.float64(0.2916666666666667)],[np.float64(-0.27666666666666667)],[1],[0],[0],[1.5823295419977512],['target'],1,001,2025-09-28_16h38.17.062,Visual Search Experiment,,2025.1.1,None,2025-09-28 16h38.24.032610 +0530,
179,0,179,[np.float64(0.02)],[np.float64(-0.16333333333333333)],[1],[0],[0],[1.0823237919830717],['target'],179,0,179,0,330.10407316699275,,10,330.09672575001605,330.10407316699275,330.10407316699275,0.017465416982304305,331.17909629200585,[np.float64(0.02)],[np.float64(-0.16333333333333333)],[1],[0],[0],[1.0823237919830717],['target'],1,001,2025-09-28_16h38.17.062,Visual Search Experiment,,2025.1.1,None,2025-09-28 16h38.24.032610 +0530,
180,0,180,[np.float64(-0.26166666666666666)],[np.float64(0.135)],[1],[0],[0],[2.4716895829769783],['target'],180,0,180,0,331.1967601249926,,5,331.19015795801533,331.1967601249926,331.1967601249926,0.010903542017331347,333.6619137499947,[np.float64(-0.26166666666666666)],[np.float64(0.135)],[1],[0],[0],[2.4716895829769783],['target'],1,001,2025-09-28_16h38.17.062,Visual Search Experiment,,2025.1.1,None,2025-09-28 16h38.24.032610 +0530,
181,0,181,[np.float64(-0.02666666666666667)],[np.float64(0.43)],[1],[0],[0],[1.937061749980785],['target'],181,0,181,0,333.682302250003,,5,333.6748225830088,333.682302250003,333.682302250003,0.012725042004603893,335.6119360830053,[np.float64(-0.02666666666666667)],[np.float64(0.43)],[1],[0],[0],[1.937061749980785],['target'],1,001,2025-09-28_16h38.17.062,Visual Search Experiment,,2025.1.1,None,2025-09-28 16h38.24.032610 +0530,
182,0,182,[np.float64(-0.46166666666666667)],[np.float64(0.23666666666666666)],[1],[0],[0],[2.2384113330044784],['target'],182,0,182,0,335.6299314170028,,5,335.6233176669921,335.6299314170028,335.6299314170028,0.011244458000874147,337.86179458300467,[np.float64(-0.46166666666666667)],[np.float64(0.23666666666666666)],[1],[0],[0],[2.2384113330044784],['target'],1,001,2025-09-28_16h38.17.062,Visual Search Experiment,,2025.1.1,None,2025-09-28 16h38.24.032610 +0530,
183,0,183,[np.float64(0.0016666666666666668)],[np.float64(0.32)],[1],[0],[0],[1.970954625023296],['target'],183,0,183,0,337.88111266700434,,5,337.8741242919932,337.88111266700434,337.88111266700434,0.012161457998445258,339.8451300000015,[np.float64(0.0016666666666666668)],[np.float64(0.32)],[1],[0],[0],[1.970954625023296],['target'],1,001,2025-09-28_16h38.17.062,Visual Search Experiment,,2025.1.1,None,2025-09-28 16h38.24.032610 +0530,
184,0,184,[np.float64(0.17)],[np.float64(0.01)],[1],[0],[0],[1.8385293330065906],['target'],184,0,184,0,339.8636110420048,,5,339.8565107920149,339.8636110420048,339.8636110420048,0.011238582985242829,341.6951044170128,[np.float64(0.17)],[np.float64(0.01)],[1],[0],[0],[1.8385293330065906],['target'],1,001,2025-09-28_16h38.17.062,Visual Search Experiment,,2025.1.1,None,2025-09-28 16h38.24.032610 +0530,
185,0,185,[np.float64(-0.013333333333333334)],[np.float64(0.365)],[1],[0],[0],[1.5720821669965517],['target'],185,0,185,0,341.7144845830044,,5,341.70745037499,341.7144845830044,341.7144845830044,0.012166832981165498,343.2796081250126,[np.float64(-0.013333333333333334)],[np.float64(0.365)],[1],[0],[0],[1.5720821669965517],['target'],1,001,2025-09-28_16h38.17.062,Visual Search Experiment,,2025.1.1,None,2025-09-28 16h38.24.032610 +0530,
186,0,186,[np.float64(0.43)],[np.float64(-0.43333333333333335)],[1],[0],[0],[2.09475995899993],['target'],186,0,186,0,343.30975591699826,,10,343.30081087499275,343.30975591699826,343.30975591699826,0.02103370800614357,345.3956139170041,[np.float64(0.43)],[np.float64(-0.43333333333333335)],[1],[0],[0],[2.09475995899993],['target'],1,001,2025-09-28_16h38.17.062,Visual Search Experiment,,2025.1.1,None,2025-09-28 16h38.24.032610 +0530,
187,0,187,[np.float64(0.49666666666666665)],[np.float64(-0.023333333333333334)],[1],[0],[0],[1.4747813750000205],['target'],187,0,187,0,345.4125526249991,,5,345.4062335420167,345.4125526249991,345.4125526249991,0.010464666003827006,346.8810949999897,[np.float64(0.49666666666666665)],[np.float64(-0.023333333333333334)],[1],[0],[0],[1.4747813750000205],['target'],1,001,2025-09-28_16h38.17.062,Visual Search Experiment,,2025.1.1,None,2025-09-28 16h38.24.032610 +0530,
188,0,188,[np.float64(0.455)],[np.float64(-0.48333333333333334)],[1],[0],[0],[2.4099316249776166],['target'],188,0,188,0,346.91188066700124,,10,346.9030261670123,346.91188066700124,346.91188066700124,0.021756041009211913,349.31300066699623,[np.float64(0.455)],[np.float64(-0.48333333333333334)],[1],[0],[0],[2.4099316249776166],['target'],1,001,2025-09-28_16h38.17.062,Visual Search Experiment,,2025.1.1,None,2025-09-28 16h38.24.032610 +0530,
189,0,189,[np.float64(-0.0033333333333333335)],[np.float64(0.105)],[1],[0],[0],[2.363109915982932],['target'],189,0,189,0,349.3399954170163,,10,349.3326441250101,349.3399954170163,349.3399954170163,0.01948583300691098,351.6958017919969,[np.float64(-0.0033333333333333335)],[np.float64(0.105)],[1],[0],[0],[2.363109915982932],['target'],1,001,2025-09-28_16h38.17.062,Visual Search Experiment,,2025.1.1,None,2025-09-28 16h38.24.032610 +0530,
190,0,190,[np.float64(-0.21666666666666667)],[np.float64(-0.285)],[1],[0],[0],[3.7643544579914305],['target'],190,0,190,0,351.7218428750057,,10,351.71441970800515,351.7218428750057,351.7218428750057,0.018451000010827556,355.47882383299293,[np.float64(-0.21666666666666667)],[np.float64(-0.285)],[1],[0],[0],[3.7643544579914305],['target'],1,001,2025-09-28_16h38.17.062,Visual Search Experiment,,2025.1.1,None,2025-09-28 16h38.24.032610 +0530,
191,0,191,[np.float64(0.18)],[np.float64(0.09166666666666666)],[1],[0],[0],[1.3232192500145175],['target'],191,0,191,0,355.4955317499989,,5,355.48922187500284,355.4955317499989,355.4955317499989,0.01022616698173806,356.81250829200144,[np.float64(0.18)],[np.float64(0.09166666666666666)],[1],[0],[0],[1.3232192500145175],['target'],1,001,2025-09-28_16h38.17.062,Visual Search Experiment,,2025.1.1,None,2025-09-28 16h38.24.032610 +0530,
192,0,192,[np.float64(-0.49833333333333335)],[np.float64(-0.335)],[1],[0],[0],[1.6200809580041096],['target'],192,0,192,0,356.83192416699603,,5,356.82510741701117,356.83192416699603,356.83192416699603,0.012424125015968457,358.4452484580106,[np.float64(-0.49833333333333335)],[np.float64(-0.335)],[1],[0],[0],[1.6200809580041096],['target'],1,001,2025-09-28_16h38.17.062,Visual Search Experiment,,2025.1.1,None,2025-09-28 16h38.24.032610 +0530,
193,0,193,[np.float64(0.09)],[np.float64(0.12333333333333334)],[1],[0],[0],[1.1547999170143157],['target'],193,0,193,0,358.46326420799596,,5,358.45650191701134,358.46326420799596,358.46326420799596,0.011091082997154444,359.61135625001043,[np.float64(0.09)],[np.float64(0.12333333333333334)],[1],[0],[0],[1.1547999170143157],['target'],1,001,2025-09-28_16h38.17.062,Visual Search Experiment,,2025.1.1,None,2025-09-28 16h38.24.032610 +0530,
194,0,194,[np.float64(0.21833333333333332)],[np.float64(-0.08666666666666667)],[1],[0],[0],[1.2478173330018762],['target'],194,0,194,0,359.6393787919951,,10,359.631222541997,359.6393787919951,359.6393787919951,0.019737541995709762,360.8790920000174,[np.float64(0.21833333333333332)],[np.float64(-0.08666666666666667)],[1],[0],[0],[1.2478173330018762],['target'],1,001,2025-09-28_16h38.17.062,Visual Search Experiment,,2025.1.1,None,2025-09-28 16h38.24.032610 +0530,
195,0,195,[np.float64(0.23333333333333334)],[np.float64(0.48333333333333334)],[1],[0],[0],[2.8814684159879107],['target'],195,0,195,0,360.9047284999979,,10,360.89757516700774,360.9047284999979,360.9047284999979,0.018323208001675084,363.7790930829942,[np.float64(0.23333333333333334)],[np.float64(0.48333333333333334)],[1],[0],[0],[2.8814684159879107],['target'],1,001,2025-09-28_16h38.17.062,Visual Search Experiment,,2025.1.1,None,2025-09-28 16h38.24.032610 +0530,
196,0,196,[np.float64(0.17)],[np.float64(-0.35833333333333334)],[1],[0],[0],[1.98071591698681],['target'],196,0,196,0,363.8060364169942,,10,363.7983205830096,363.8060364169942,363.8060364169942,0.01905591701506637,365.77908266699524,[np.float64(0.17)],[np.float64(-0.35833333333333334)],[1],[0],[0],[1.98071591698681],['target'],1,001,2025-09-28_16h38.17.062,Visual Search Experiment,,2025.1.1,None,2025-09-28 16h38.24.032610 +0530,
197,0,197,[np.float64(0.4633333333333333)],[np.float64(0.29)],[1],[0],[0],[1.7575095830252394],['target'],197,0,197,0,365.7962268330157,,5,365.7898661250074,365.7962268330157,365.7962268330157,0.010626125003909692,367.5474467500171,[np.float64(0.4633333333333333)],[np.float64(0.29)],[1],[0],[0],[1.7575095830252394],['target'],1,001,2025-09-28_16h38.17.062,Visual Search Experiment,,2025.1.1,None,2025-09-28 16h38.24.032610 +0530,
198,0,198,[np.float64(-0.45166666666666666)],[np.float64(0.225)],[1],[0],[0],[2.4209079580032267],['target'],198,0,198,0,367.566634332994,,5,367.5597366669972,367.566634332994,367.566634332994,0.012118667014874518,369.98070975000155,[np.float64(-0.45166666666666666)],[np.float64(0.225)],[1],[0],[0],[2.4209079580032267],['target'],1,001,2025-09-28_16h38.17.062,Visual Search Experiment,,2025.1.1,None,2025-09-28 16h38.24.032610 +0530,
199,0,199,[np.float64(0.21166666666666667)],[np.float64(-0.305)],[1],[0],[0],[2.108879417006392],['target'],199,0,199,0,370.01241470800596,,10,370.0033449170005,370.01241470800596,370.01241470800596,0.02246195898624137,372.11226854199776,[np.float64(0.21166666666666667)],[np.float64(-0.305)],[1],[0],[0],[2.108879417006392],['target'],1,001,2025-09-28_16h38.17.062,Visual Search Experiment,,2025.1.1,None,2025-09-28 16h38.24.032610 +0530,
