pos,corr_resp,thisN,thisTrialN,thisRepN,key_resp.keys,key_resp.corr,key_resp.rt,key_resp.duration,trials.thisRepN,trials.thisTrialN,trials.thisN,trials.thisIndex,trials_2.thisRepN,trials_2.thisTrialN,trials_2.thisN,trials_2.thisIndex,thisRow.t,notes,trial.started,fixation.started,line_1.started,line_2.started,line_3.started,line_4.started,fixation.stopped,probe.started,key_resp.started,trial.stopped,trials.key_resp.keys,trials.key_resp.corr,trials.key_resp.rt,trials.key_resp.duration,trials_2.key_resp.keys,trials_2.key_resp.corr,trials_2.key_resp.rt,trials_2.key_resp.duration,participant,session,date,expName,expVersion,psychopyVersion,frameRate,expStart,
-50,x,0,0,0,x,1,0.49593741598073393,None,0,0,0,0,,,,,0.013479665969498456,,0.010124999971594661,0.013479665969498456,1.0019201249815524,1.0019201249815524,1.0019201249815524,1.0019201249815524,1.0145860409829766,1.9986930830054916,1.9986930830054916,2.6681949999765493,x,1,0.49593741598073393,None,,,,,2,001,2025-10-01_11h03.31.332, Motor Sequence Learning,,2025.1.1,None,2025-10-01 11h03.38.396007 +0530,
150,v,1,1,0,v,1,0.3391714160097763,None,0,1,1,1,,,,,2.673877957975492,,2.668369541002903,2.673877957975492,3.665061165986117,3.665061165986117,3.665061165986117,3.665061165986117,3.6686410830006935,4.665368499991018,4.665368499991018,5.00962108297972,v,1,0.3391714160097763,None,,,,,2,001,2025-10-01_11h03.31.332, Motor Sequence Learning,,2025.1.1,None,2025-10-01 11h03.38.396007 +0530,
50,c,2,2,0,c,1,0.547574165975675,None,0,2,2,2,,,,,5.014980915992055,,5.009873458009679,5.014980915992055,6.008520958013833,6.008520958013833,6.008520958013833,6.008520958013833,6.008520958013833,7.009094999986701,7.009094999986701,7.5660527080181055,c,1,0.547574165975675,None,,,,,2,001,2025-10-01_11h03.31.332, Motor Sequence Learning,,2025.1.1,None,2025-10-01 11h03.38.396007 +0530,
-150,z,3,3,0,z,1,0.31782016600482166,None,0,3,3,3,,,,,7.57117162499344,,7.566350958019029,7.57117162499344,8.55148141598329,8.55148141598329,8.55148141598329,8.55148141598329,8.568445249984507,9.55131391598843,9.55131391598843,9.882703249983024,z,1,0.31782016600482166,None,,,,,2,001,2025-10-01_11h03.31.332, Motor Sequence Learning,,2025.1.1,None,2025-10-01 11h03.38.396007 +0530,
-50,x,4,0,1,x,1,0.3284731659805402,None,1,0,4,0,,,,,9.88734283298254,,9.882964666001499,9.88734283298254,10.875214290979784,10.875214290979784,10.875214290979784,10.875214290979784,10.881916415994056,11.86995958298212,11.86995958298212,12.19936379097635,x,1,0.3284731659805402,None,,,,,2,001,2025-10-01_11h03.31.332, Motor Sequence Learning,,2025.1.1,None,2025-10-01 11h03.38.396007 +0530,
150,v,5,1,1,v,1,0.330142373975832,None,1,1,5,1,,,,,12.202849166002125,,12.199618665967137,12.202849166002125,13.198749458009843,13.198749458009843,13.198749458009843,13.198749458009843,13.198749458009843,14.185143125010654,14.185143125010654,14.519241124973632,v,1,0.330142373975832,None,,,,,2,001,2025-10-01_11h03.31.332, Motor Sequence Learning,,2025.1.1,None,2025-10-01 11h03.38.396007 +0530,
50,c,6,2,1,c,1,0.2809093330288306,None,1,2,6,2,,,,,14.53198104101466,,14.519493124971632,14.53198104101466,15.51506479101954,15.51506479101954,15.51506479101954,15.51506479101954,15.518547250016127,16.515373583009932,16.515373583009932,16.79923250002321,c,1,0.2809093330288306,None,,,,,2,001,2025-10-01_11h03.31.332, Motor Sequence Learning,,2025.1.1,None,2025-10-01 11h03.38.396007 +0530,
-150,z,7,3,1,z,1,0.36089945799903944,None,1,3,7,3,,,,,16.802161249972414,,16.79948433302343,16.802161249972414,17.78533724998124,17.78533724998124,17.78533724998124,17.78533724998124,17.79873920796672,18.785363040980883,18.785363040980883,19.149384999996983,z,1,0.36089945799903944,None,,,,,2,001,2025-10-01_11h03.31.332, Motor Sequence Learning,,2025.1.1,None,2025-10-01 11h03.38.396007 +0530,
-50,x,8,0,2,x,1,0.47108249901793897,None,2,0,8,0,,,,,19.15212183300173,,19.149689415993635,19.15212183300173,20.135478375013918,20.135478375013918,20.135478375013918,20.135478375013918,20.148731374996714,21.135260957991704,21.135260957991704,21.61615079100011,x,1,0.47108249901793897,None,,,,,2,001,2025-10-01_11h03.31.332, Motor Sequence Learning,,2025.1.1,None,2025-10-01 11h03.38.396007 +0530,
150,v,9,1,2,v,1,0.33990345703205094,None,2,1,9,1,,,,,21.621004457992967,,21.61641212500399,21.621004457992967,22.60204149998026,22.60204149998026,22.60204149998026,22.60204149998026,22.619247458002064,23.615267832996324,23.615267832996324,23.959927666001022,v,1,0.33990345703205094,None,,,,,2,001,2025-10-01_11h03.31.332, Motor Sequence Learning,,2025.1.1,None,2025-10-01 11h03.38.396007 +0530,
50,c,10,2,2,c,1,0.4008356659905985,None,2,2,10,2,,,,,23.96506891597528,,23.96014954097336,23.96506891597528,24.958160375012085,24.958160375012085,24.958160375012085,24.958160375012085,24.958160375012085,25.952325624995865,25.952325624995865,26.36609316599788,c,1,0.4008356659905985,None,,,,,2,001,2025-10-01_11h03.31.332, Motor Sequence Learning,,2025.1.1,None,2025-10-01 11h03.38.396007 +0530,
-150,z,11,3,2,z,1,0.46342462400207296,None,2,3,11,3,,,,,26.370493582973722,,26.366366165981162,26.370493582973722,27.351563166012056,27.351563166012056,27.351563166012056,27.351563166012056,27.369006540975533,28.35154683300061,28.35154683300061,28.81614162499318,z,1,0.46342462400207296,None,,,,,2,001,2025-10-01_11h03.31.332, Motor Sequence Learning,,2025.1.1,None,2025-10-01 11h03.38.396007 +0530,
-50,x,12,0,3,x,1,0.38666675001149997,None,3,0,12,0,,,,,28.81859258300392,,28.816408207989298,28.81859258300392,29.801599707978312,29.801599707978312,29.801599707978312,29.801599707978312,29.81529729097383,30.80133708298672,30.80133708298672,31.192649165983312,x,1,0.38666675001149997,None,,,,,2,001,2025-10-01_11h03.31.332, Motor Sequence Learning,,2025.1.1,None,2025-10-01 11h03.38.396007 +0530,
150,v,13,1,3,v,1,0.31544179102638736,None,3,1,13,1,,,,,31.197691500012297,,31.19286466599442,31.197691500012297,32.19213949999539,32.19213949999539,32.19213949999539,32.19213949999539,32.19213949999539,33.19253045797814,33.19253045797814,33.51603941601934,v,1,0.31544179102638736,None,,,,,2,001,2025-10-01_11h03.31.332, Motor Sequence Learning,,2025.1.1,None,2025-10-01 11h03.38.396007 +0530,
50,c,14,2,3,c,1,0.30021587398368865,None,3,2,14,2,,,,,33.52522458299063,,33.516333832987584,33.52522458299063,34.502729290979914,34.502729290979914,34.502729290979914,34.502729290979914,34.525635915983,35.50272937497357,35.50272937497357,35.81612595799379,c,1,0.30021587398368865,None,,,,,2,001,2025-10-01_11h03.31.332, Motor Sequence Learning,,2025.1.1,None,2025-10-01 11h03.38.396007 +0530,
-150,z,15,3,3,z,1,0.3543506659916602,None,3,3,15,3,,,,,35.8210353750037,,35.81642554100836,35.8210353750037,36.801164583011996,36.801164583011996,36.801164583011996,36.801164583011996,36.818082790996414,37.80151174997445,37.80151174997445,38.16613675002009,z,1,0.3543506659916602,None,,,,,2,001,2025-10-01_11h03.31.332, Motor Sequence Learning,,2025.1.1,None,2025-10-01 11h03.38.396007 +0530,
-50,x,16,0,4,x,1,0.3694622489856556,None,4,0,16,0,,,,,38.17053112498252,,38.16642916598357,38.17053112498252,39.15179741597967,39.15179741597967,39.15179741597967,39.15179741597967,39.16906250000466,40.1513062909944,40.1513062909944,40.525917541002855,x,1,0.3694622489856556,None,,,,,2,001,2025-10-01_11h03.31.332, Motor Sequence Learning,,2025.1.1,None,2025-10-01 11h03.38.396007 +0530,
150,v,17,1,4,v,1,0.30826483300188556,None,4,1,17,1,,,,,40.53102920798119,,40.5261362909805,40.53102920798119,41.518759250000585,41.518759250000585,41.518759250000585,41.518759250000585,41.518759250000585,42.51857508299872,42.51857508299872,42.83244304097025,v,1,0.30826483300188556,None,,,,,2,001,2025-10-01_11h03.31.332, Motor Sequence Learning,,2025.1.1,None,2025-10-01 11h03.38.396007 +0530,
50,c,18,2,4,c,1,0.3034429569961503,None,4,2,18,2,,,,,42.83636008301983,,42.83265716599999,42.83636008301983,43.818031375005376,43.818031375005376,43.818031375005376,43.818031375005376,43.83578016597312,44.81828291597776,44.81828291597776,45.13259375002235,c,1,0.3034429569961503,None,,,,,2,001,2025-10-01_11h03.31.332, Motor Sequence Learning,,2025.1.1,None,2025-10-01 11h03.38.396007 +0530,
-150,z,19,3,4,z,1,0.28290037502301857,None,4,3,19,3,,,,,45.1421539579751,,45.132862582977396,45.1421539579751,46.11921054101549,46.11921054101549,46.11921054101549,46.11921054101549,46.1357090829988,47.1187570830225,47.1187570830225,47.41590029100189,z,1,0.28290037502301857,None,,,,,2,001,2025-10-01_11h03.31.332, Motor Sequence Learning,,2025.1.1,None,2025-10-01 11h03.38.396007 +0530,
-50,x,20,0,5,x,1,0.4020049989921972,None,5,0,20,0,,,,,47.420598790980875,,47.416191458003595,47.420598790980875,48.40169833297841,48.40169833297841,48.40169833297841,48.40169833297841,48.41961408301722,49.40166666597361,49.40166666597361,49.81607891601743,x,1,0.4020049989921972,None,,,,,2,001,2025-10-01_11h03.31.332, Motor Sequence Learning,,2025.1.1,None,2025-10-01 11h03.38.396007 +0530,
150,v,21,1,5,v,1,0.44204329105559736,None,5,1,21,1,,,,,49.82047679100651,,49.816337874974124,49.82047679100651,50.80168412497733,50.80168412497733,50.80168412497733,50.80168412497733,50.81855754100252,51.801550125004724,51.801550125004724,52.248822333000135,v,1,0.44204329105559736,None,,,,,2,001,2025-10-01_11h03.31.332, Motor Sequence Learning,,2025.1.1,None,2025-10-01 11h03.38.396007 +0530,
50,c,22,2,5,c,1,0.3545427490025759,None,5,2,22,2,,,,,52.252720582997426,,52.24903779098531,52.252720582997426,53.24219291599002,53.24219291599002,53.24219291599002,53.24219291599002,53.24851745797787,54.242013333016075,54.242013333016075,54.59908124996582,c,1,0.3545427490025759,None,,,,,2,001,2025-10-01_11h03.31.332, Motor Sequence Learning,,2025.1.1,None,2025-10-01 11h03.38.396007 +0530,
-150,z,23,3,5,z,1,0.2995594999520108,None,5,3,23,3,,,,,54.60184845799813,,54.59930975001771,54.60184845799813,55.585680124990176,55.585680124990176,55.585680124990176,55.585680124990176,55.59851450001588,56.58581041597063,56.58581041597063,56.899362207972445,z,1,0.2995594999520108,None,,,,,2,001,2025-10-01_11h03.31.332, Motor Sequence Learning,,2025.1.1,None,2025-10-01 11h03.38.396007 +0530,
-50,x,24,0,6,x,1,0.4394997490453534,None,6,0,24,0,,,,,56.9043897499796,,56.89966266602278,56.9043897499796,57.88491712498944,57.88491712498944,57.88491712498944,57.88491712498944,57.901728875003755,58.884907124971505,58.884907124971505,59.332618915999774,x,1,0.4394997490453534,None,,,,,2,001,2025-10-01_11h03.31.332, Motor Sequence Learning,,2025.1.1,None,2025-10-01 11h03.38.396007 +0530,
150,v,25,1,6,v,1,0.33354862401029095,None,6,1,25,1,,,,,59.34246158297174,,59.33288070798153,59.34246158297174,60.31823545799125,60.31823545799125,60.31823545799125,60.31823545799125,60.33918775001075,61.331721124995966,61.331721124995966,61.66964249999728,v,1,0.33354862401029095,None,,,,,2,001,2025-10-01_11h03.31.332, Motor Sequence Learning,,2025.1.1,None,2025-10-01 11h03.38.396007 +0530,
50,c,26,2,6,c,1,0.33707795798545703,None,6,2,26,2,,,,,61.68194187496556,,61.66990233300021,61.68194187496556,62.66894941596547,62.66894941596547,62.66894941596547,62.66894941596547,62.66894941596547,63.66924854100216,63.66924854100216,64.01594775001286,c,1,0.33707795798545703,None,,,,,2,001,2025-10-01_11h03.31.332, Motor Sequence Learning,,2025.1.1,None,2025-10-01 11h03.38.396007 +0530,
-150,z,27,3,6,z,1,0.3346721659763716,None,6,3,27,3,,,,,64.01994687499246,,64.01618812500965,64.01994687499246,65.00201737496536,65.00201737496536,65.00201737496536,65.00201737496536,65.01834170799702,66.00215866597136,66.00215866597136,66.34937129099853,z,1,0.3346721659763716,None,,,,,2,001,2025-10-01_11h03.31.332, Motor Sequence Learning,,2025.1.1,None,2025-10-01 11h03.38.396007 +0530,
-50,x,28,0,7,x,1,0.3099573740037158,None,7,0,28,0,,,,,66.35408537497278,,66.349661166023,66.35408537497278,67.33874441601802,67.33874441601802,67.33874441601802,67.33874441601802,67.34855104098096,68.33924537501298,68.33924537501298,68.65298420801992,x,1,0.3099573740037158,None,,,,,2,001,2025-10-01_11h03.31.332, Motor Sequence Learning,,2025.1.1,None,2025-10-01 11h03.38.396007 +0530,
150,v,29,1,7,v,1,0.3916663739946671,None,7,1,29,1,,,,,68.66537220799364,,68.65323387499666,68.66537220799364,69.65180066600442,69.65180066600442,69.65180066600442,69.65180066600442,69.65180066600442,70.65156124997884,70.65156124997884,71.04907854099292,v,1,0.3916663739946671,None,,,,,2,001,2025-10-01_11h03.31.332, Motor Sequence Learning,,2025.1.1,None,2025-10-01 11h03.38.396007 +0530,
50,c,30,2,7,c,1,0.34308054100256413,None,7,2,30,2,,,,,71.05315787502332,,71.04933645797428,71.05315787502332,72.03561983298277,72.03561983298277,72.03561983298277,72.03561983298277,72.04850466601783,73.03601083299145,73.03601083299145,73.38272204098757,c,1,0.34308054100256413,None,,,,,2,001,2025-10-01_11h03.31.332, Motor Sequence Learning,,2025.1.1,None,2025-10-01 11h03.38.396007 +0530,
-150,z,31,3,7,z,1,0.3247801660327241,None,7,3,31,3,,,,,73.38514245802071,,73.38302687497344,73.38514245802071,74.36931766598718,74.36931766598718,74.36931766598718,74.36931766598718,74.38187741598813,75.36925837496528,75.36925837496528,75.69913158298004,z,1,0.3247801660327241,None,,,,,2,001,2025-10-01_11h03.31.332, Motor Sequence Learning,,2025.1.1,None,2025-10-01 11h03.38.396007 +0530,
-50,x,32,0,8,x,1,0.3173243749770336,None,8,0,32,0,,,,,75.7034222909715,,75.69939245801652,75.7034222909715,76.69226733298274,76.69226733298274,76.69226733298274,76.69226733298274,76.6984366250108,77.69256195798516,77.69256195798516,78.01588558300864,x,1,0.3173243749770336,None,,,,,2,001,2025-10-01_11h03.31.332, Motor Sequence Learning,,2025.1.1,None,2025-10-01 11h03.38.396007 +0530,
150,v,33,1,8,v,1,0.2808870410080999,None,8,1,33,1,,,,,78.02025012497324,,78.01614516600966,78.02025012497324,79.00278099998832,79.00278099998832,79.00278099998832,79.00278099998832,79.01531829097075,80.01495641598012,80.01495641598012,80.2991911249701,v,1,0.2808870410080999,None,,,,,2,001,2025-10-01_11h03.31.332, Motor Sequence Learning,,2025.1.1,None,2025-10-01 11h03.38.396007 +0530,
50,c,34,2,8,c,1,0.44647366600111127,None,8,2,34,2,,,,,80.30175233300542,,80.29942420800216,80.30175233300542,81.29139916598797,81.29139916598797,81.29139916598797,81.29139916598797,81.29856558301253,82.2852897910052,82.2852897910052,82.73261454101885,c,1,0.44647366600111127,None,,,,,2,001,2025-10-01_11h03.31.332, Motor Sequence Learning,,2025.1.1,None,2025-10-01 11h03.38.396007 +0530,
-150,z,35,3,8,z,1,0.3340334580279887,None,8,3,35,3,,,,,82.73528208298376,,82.73288899997715,82.73528208298376,83.71821687498596,83.71821687498596,83.71821687498596,83.71821687498596,83.73195520800073,84.71876187500311,84.71876187500311,85.06589516601525,z,1,0.3340334580279887,None,,,,,2,001,2025-10-01_11h03.31.332, Motor Sequence Learning,,2025.1.1,None,2025-10-01 11h03.38.396007 +0530,
-50,x,36,0,9,x,1,0.26849145704181865,None,9,0,36,0,,,,,85.0708690409665,,85.06629620800959,85.0708690409665,86.0513355829753,86.0513355829753,86.0513355829753,86.0513355829753,86.06845620798413,87.05837062501814,87.05837062501814,87.33243254100671,x,1,0.26849145704181865,None,,,,,2,001,2025-10-01_11h03.31.332, Motor Sequence Learning,,2025.1.1,None,2025-10-01 11h03.38.396007 +0530,
150,v,37,1,9,v,1,0.29810854099923745,None,9,1,37,1,,,,,87.33551000000443,,87.33268033299828,87.33551000000443,88.32578899996588,88.32578899996588,88.32578899996588,88.32578899996588,88.33185779099585,89.32368041598238,89.32368041598238,89.63272925000638,v,1,0.29810854099923745,None,,,,,2,001,2025-10-01_11h03.31.332, Motor Sequence Learning,,2025.1.1,None,2025-10-01 11h03.38.396007 +0530,
50,c,38,2,9,c,1,0.3007324159843847,None,9,2,38,2,,,,,89.63796970801195,,89.63302574999398,89.63796970801195,90.61876691598445,90.61876691598445,90.61876691598445,90.61876691598445,90.63538920797873,91.6319087499869,91.6319087499869,91.93544008297613,c,1,0.3007324159843847,None,,,,,2,001,2025-10-01_11h03.31.332, Motor Sequence Learning,,2025.1.1,None,2025-10-01 11h03.38.396007 +0530,
-150,z,39,3,9,z,1,0.3907287489855662,None,9,3,39,3,,,,,91.94849154097028,,91.93568583298475,91.94849154097028,92.93187562498497,92.93187562498497,92.93187562498497,92.93187562498497,92.93519708298845,93.9319223749917,93.9319223749917,94.33255591598572,z,1,0.3907287489855662,None,,,,,2,001,2025-10-01_11h03.31.332, Motor Sequence Learning,,2025.1.1,None,2025-10-01 11h03.38.396007 +0530,
-50,x,40,0,10,x,1,0.30747654096921906,None,10,0,40,0,,,,,94.33687720797025,,94.33281908300705,94.33687720797025,95.3221140410169,95.3221140410169,95.3221140410169,95.3221140410169,95.3317403330002,96.31807895802194,96.31807895802194,96.63241133297561,x,1,0.30747654096921906,None,,,,,2,001,2025-10-01_11h03.31.332, Motor Sequence Learning,,2025.1.1,None,2025-10-01 11h03.38.396007 +0530,
150,v,41,1,10,v,1,0.2929231660091318,None,10,1,41,1,,,,,96.63663466600701,,96.63266170799034,96.63663466600701,97.6189002909814,97.6189002909814,97.6189002909814,97.6189002909814,97.63489362498512,98.61868570797378,98.61868570797378,98.91587112500565,v,1,0.2929231660091318,None,,,,,2,001,2025-10-01_11h03.31.332, Motor Sequence Learning,,2025.1.1,None,2025-10-01 11h03.38.396007 +0530,
50,c,42,2,10,c,1,0.39346699899761006,None,10,2,42,2,,,,,98.91924316599034,,98.91611808299785,98.91924316599034,99.90103854099289,99.90103854099289,99.90103854099289,99.90103854099289,99.9189801249886,100.90093850000994,100.90093850000994,101.29911554098362,c,1,0.39346699899761006,None,,,,,2,001,2025-10-01_11h03.31.332, Motor Sequence Learning,,2025.1.1,None,2025-10-01 11h03.38.396007 +0530,
-150,z,43,3,10,z,1,0.44360754097579047,None,10,3,43,3,,,,,101.30148999998346,,101.29948287497973,101.30148999998346,102.29010641598143,102.29010641598143,102.29010641598143,102.29010641598143,102.29852858302183,103.29121966601815,103.29121966601815,103.73604512499878,z,1,0.44360754097579047,None,,,,,2,001,2025-10-01_11h03.31.332, Motor Sequence Learning,,2025.1.1,None,2025-10-01 11h03.38.396007 +0530,
-50,x,44,0,11,x,1,0.35331070801476017,None,11,0,44,0,,,,,103.74831420800183,,103.7363239999977,103.74831420800183,104.73463270801585,104.73463270801585,104.73463270801585,104.73463270801585,104.73463270801585,105.73502762499265,105.73502762499265,106.09233708301326,x,1,0.35331070801476017,None,,,,,2,001,2025-10-01_11h03.31.332, Motor Sequence Learning,,2025.1.1,None,2025-10-01 11h03.38.396007 +0530,
150,v,45,1,11,v,1,0.42466762399999425,None,11,1,45,1,,,,,106.0977853750228,,106.09258616599254,106.0977853750228,107.09146741597215,107.09146741597215,107.09146741597215,107.09146741597215,107.09146741597215,108.0915540829883,108.0915540829883,108.51861450000433,v,1,0.42466762399999425,None,,,,,2,001,2025-10-01_11h03.31.332, Motor Sequence Learning,,2025.1.1,None,2025-10-01 11h03.38.396007 +0530,
50,c,46,2,11,c,1,0.3421237069997005,None,11,2,46,2,,,,,108.53178908297559,,108.518853165966,108.53178908297559,109.5152211249806,109.5152211249806,109.5152211249806,109.5152211249806,109.51814058300806,110.51512137497775,110.51512137497775,110.86578049999662,c,1,0.3421237069997005,None,,,,,2,001,2025-10-01_11h03.31.332, Motor Sequence Learning,,2025.1.1,None,2025-10-01 11h03.38.396007 +0530,
-150,z,47,3,11,z,1,0.6654384579742327,None,11,3,47,3,,,,,110.86987108300673,,110.86602220800705,110.86987108300673,111.85112491599284,111.85112491599284,111.85112491599284,111.85112491599284,111.86879608297022,112.8516653329716,112.8516653329716,113.51859449996846,z,1,0.6654384579742327,None,,,,,2,001,2025-10-01_11h03.31.332, Motor Sequence Learning,,2025.1.1,None,2025-10-01 11h03.38.396007 +0530,
-50,x,48,0,12,x,1,0.34909904102096334,None,12,0,48,0,,,,,113.53184466599487,,113.51885095797479,113.53184466599487,114.51511279097758,114.51511279097758,114.51511279097758,114.51511279097758,114.51811066601658,115.51503741601482,115.51503741601482,115.86599099996965,x,1,0.34909904102096334,None,,,,,2,001,2025-10-01_11h03.31.332, Motor Sequence Learning,,2025.1.1,None,2025-10-01 11h03.38.396007 +0530,
150,v,49,1,12,v,1,0.3102609989582561,None,12,1,49,1,,,,,115.86933974997373,,115.8662868749816,115.86933974997373,116.85791629098821,116.85791629098821,116.85791629098821,116.85791629098821,116.86509466602001,117.85887670802185,117.85887670802185,118.17007154098246,v,1,0.3102609989582561,None,,,,,2,001,2025-10-01_11h03.31.332, Motor Sequence Learning,,2025.1.1,None,2025-10-01 11h03.38.396007 +0530,
50,c,50,2,12,c,1,0.31964891601819545,None,12,2,50,2,,,,,118.18175487499684,,118.17032204096904,118.18175487499684,119.1690234579728,119.1690234579728,119.1690234579728,119.1690234579728,119.1690234579728,120.16949150001165,120.16949150001165,120.49914362496929,c,1,0.31964891601819545,None,,,,,2,001,2025-10-01_11h03.31.332, Motor Sequence Learning,,2025.1.1,None,2025-10-01 11h03.38.396007 +0530,
-150,z,51,3,12,z,1,0.3256948330090381,None,12,3,51,3,,,,,120.50343241600785,,120.49940454098396,120.50343241600785,121.48451074998593,121.48451074998593,121.48451074998593,121.48451074998593,121.50211416598177,122.48441329097841,122.48441329097841,122.81587283301633,z,1,0.3256948330090381,None,,,,,2,001,2025-10-01_11h03.31.332, Motor Sequence Learning,,2025.1.1,None,2025-10-01 11h03.38.396007 +0530,
-50,x,52,0,13,x,1,0.289584832964465,None,13,0,52,0,,,,,122.81816079100827,,122.81613824999658,122.81816079100827,123.80158024997218,123.80158024997218,123.80158024997218,123.80158024997218,123.81513579096645,124.80145304097096,124.80145304097096,125.09923570801038,x,1,0.289584832964465,None,,,,,2,001,2025-10-01_11h03.31.332, Motor Sequence Learning,,2025.1.1,None,2025-10-01 11h03.38.396007 +0530,
150,v,53,1,13,v,1,0.43798370799049735,None,13,1,53,1,,,,,125.1041608749656,,125.09952908300329,125.1041608749656,126.08521041600034,126.08521041600034,126.08521041600034,126.08521041600034,126.1013717079768,127.08484887500526,127.08484887500526,127.52664241602179,v,1,0.43798370799049735,None,,,,,2,001,2025-10-01_11h03.31.332, Motor Sequence Learning,,2025.1.1,None,2025-10-01 11h03.38.396007 +0530,
50,c,54,2,13,c,1,0.28943641600199044,None,13,2,54,2,,,,,127.53128516598372,,127.52685575000942,127.53128516598372,128.52494962501805,128.52494962501805,128.52494962501805,128.52494962501805,128.52494962501805,129.5306314160116,129.5306314160116,129.8325749579817,c,1,0.28943641600199044,None,,,,,2,001,2025-10-01_11h03.31.332, Motor Sequence Learning,,2025.1.1,None,2025-10-01 11h03.38.396007 +0530,
-150,z,55,3,13,z,1,0.2423280410002917,None,13,3,55,3,,,,,129.83676425000886,,129.83283233299153,129.83676425000886,130.8188235409907,130.8188235409907,130.8188235409907,130.8188235409907,130.83536383300088,131.8255227499758,131.8255227499758,132.06956616597017,z,1,0.2423280410002917,None,,,,,2,001,2025-10-01_11h03.31.332, Motor Sequence Learning,,2025.1.1,None,2025-10-01 11h03.38.396007 +0530,
-50,x,56,0,14,x,1,0.8028804580098949,None,14,0,56,0,,,,,132.08180287497817,,132.06981454096967,132.08180287497817,133.06828495801892,133.06828495801892,133.06828495801892,133.06828495801892,133.06828495801892,134.06777924997732,134.06777924997732,134.88228933297796,x,1,0.8028804580098949,None,,,,,2,001,2025-10-01_11h03.31.332, Motor Sequence Learning,,2025.1.1,None,2025-10-01 11h03.38.396007 +0530,
150,v,57,1,14,v,1,0.4088792490074411,None,14,1,57,1,,,,,134.89203529100632,,134.88255708297947,134.89203529100632,135.86904545797734,135.86904545797734,135.86904545797734,135.86904545797734,135.8921957499697,136.86882174998755,136.86882174998755,137.28223725000862,v,1,0.4088792490074411,None,,,,,2,001,2025-10-01_11h03.31.332, Motor Sequence Learning,,2025.1.1,None,2025-10-01 11h03.38.396007 +0530,
50,c,58,2,14,c,1,0.4033718749997206,None,14,2,58,2,,,,,137.29214279097505,,137.28249583300203,137.29214279097505,138.26825516601093,138.26825516601093,138.26825516601093,138.26825516601093,138.29183624999132,139.26822545798495,139.26822545798495,139.6826530409744,c,1,0.4033718749997206,None,,,,,2,001,2025-10-01_11h03.31.332, Motor Sequence Learning,,2025.1.1,None,2025-10-01 11h03.38.396007 +0530,
-150,z,59,3,14,z,1,0.33481762500014156,None,14,3,59,3,,,,,139.69233966601314,,139.68294650001917,139.69233966601314,140.66929008299485,140.66929008299485,140.66929008299485,140.66929008299485,140.6918029160006,141.68179262499325,141.68179262499325,142.01899208297255,z,1,0.33481762500014156,None,,,,,2,001,2025-10-01_11h03.31.332, Motor Sequence Learning,,2025.1.1,None,2025-10-01 11h03.38.396007 +0530,
-50,x,60,0,15,x,1,0.33637833304237574,None,15,0,60,0,,,,,142.03155641601188,,142.01924654102186,142.03155641601188,143.01511508302065,143.01511508302065,143.01511508302065,143.01511508302065,143.01852670800872,144.0151602079859,144.0151602079859,144.358648540976,x,1,0.33637833304237574,None,,,,,2,001,2025-10-01_11h03.31.332, Motor Sequence Learning,,2025.1.1,None,2025-10-01 11h03.38.396007 +0530,
150,v,61,1,15,v,1,0.2537126239622012,None,15,1,61,1,,,,,144.3641739159939,,144.3589065829874,144.3641739159939,145.35169029101962,145.35169029101962,145.35169029101962,145.35169029101962,145.35169029101962,146.35164950002218,146.35164950002218,146.61560629098676,v,1,0.2537126239622012,None,,,,,2,001,2025-10-01_11h03.31.332, Motor Sequence Learning,,2025.1.1,None,2025-10-01 11h03.38.396007 +0530,
50,c,62,2,15,c,1,0.40019633300835267,None,15,2,62,2,,,,,146.62214595801197,,146.61590866599,146.62214595801197,147.60118487500586,147.60118487500586,147.60118487500586,147.60118487500586,147.62154954101425,148.60123558301711,148.60123558301711,149.00288845796604,c,1,0.40019633300835267,None,,,,,2,001,2025-10-01_11h03.31.332, Motor Sequence Learning,,2025.1.1,None,2025-10-01 11h03.38.396007 +0530,
-150,z,63,3,15,z,1,0.27377799898386,None,15,3,63,3,,,,,149.01507541601313,,149.00316049996763,149.01507541601313,150.00211187498644,150.00211187498644,150.00211187498644,150.00211187498644,150.00211187498644,151.0026709579979,151.0026709579979,151.28256333299214,z,1,0.27377799898386,None,,,,,2,001,2025-10-01_11h03.31.332, Motor Sequence Learning,,2025.1.1,None,2025-10-01 11h03.38.396007 +0530,
-50,x,64,0,16,x,1,0.34360625001136214,None,16,0,64,0,,,,,151.2890557500068,,151.28286170802312,151.2890557500068,152.2679588330211,152.2679588330211,152.2679588330211,152.2679588330211,152.28537920798408,153.26773249998223,153.26773249998223,153.6158527500229,x,1,0.34360625001136214,None,,,,,2,001,2025-10-01_11h03.31.332, Motor Sequence Learning,,2025.1.1,None,2025-10-01 11h03.38.396007 +0530,
150,v,65,1,16,v,1,0.2641457910067402,None,16,1,65,1,,,,,153.6187622079742,,153.6161173749715,153.6187622079742,154.60122604097705,154.60122604097705,154.60122604097705,154.60122604097705,154.61503941600677,155.60100891598267,155.60100891598267,155.86926358297933,v,1,0.2641457910067402,None,,,,,2,001,2025-10-01_11h03.31.332, Motor Sequence Learning,,2025.1.1,None,2025-10-01 11h03.38.396007 +0530,
50,c,66,2,16,c,1,0.3523410820052959,None,16,2,66,2,,,,,155.8817544580088,,155.86947812500875,155.8817544580088,156.865011915972,156.865011915972,156.865011915972,156.865011915972,156.86827187502058,157.86491654097335,157.86491654097335,158.23237991600763,c,1,0.3523410820052959,None,,,,,2,001,2025-10-01_11h03.31.332, Motor Sequence Learning,,2025.1.1,None,2025-10-01 11h03.38.396007 +0530,
-150,z,67,3,16,z,1,0.37452920799842104,None,16,3,67,3,,,,,158.23749341600342,,158.23265008296585,158.23749341600342,159.218263207993,159.218263207993,159.218263207993,159.218263207993,159.23432920797495,160.2176764999749,160.2176764999749,160.59893558296608,z,1,0.37452920799842104,None,,,,,2,001,2025-10-01_11h03.31.332, Motor Sequence Learning,,2025.1.1,None,2025-10-01 11h03.38.396007 +0530,
-50,x,68,0,17,x,1,0.27632929099490866,None,17,0,68,0,,,,,160.60370624996722,,160.59919654100668,160.60370624996722,161.59208016598132,161.59208016598132,161.59208016598132,161.59208016598132,161.5983508329955,162.58498020801926,162.58498020801926,162.86490158300148,x,1,0.27632929099490866,None,,,,,2,001,2025-10-01_11h03.31.332, Motor Sequence Learning,,2025.1.1,None,2025-10-01 11h03.38.396007 +0530,
150,v,69,1,17,v,1,0.29188483202597126,None,17,1,69,1,,,,,162.8677595409681,,162.86515658302233,162.8677595409681,163.85086791601498,163.85086791601498,163.85086791601498,163.85086791601498,163.86504870798672,164.85121100000106,164.85121100000106,165.1491579579888,v,1,0.29188483202597126,None,,,,,2,001,2025-10-01_11h03.31.332, Motor Sequence Learning,,2025.1.1,None,2025-10-01 11h03.38.396007 +0530,
50,c,70,2,17,c,1,0.3323117080144584,None,17,2,70,2,,,,,165.15370445797453,,165.14940574998036,165.15370445797453,166.1345917499857,166.1345917499857,166.1345917499857,166.1345917499857,166.15143404097762,167.13601541600656,167.13601541600656,167.48233174998313,c,1,0.3323117080144584,None,,,,,2,001,2025-10-01_11h03.31.332, Motor Sequence Learning,,2025.1.1,None,2025-10-01 11h03.38.396007 +0530,
-150,z,71,3,17,z,1,0.4522443750174716,None,17,3,71,3,,,,,167.4864696249715,,167.48255837499164,167.4864696249715,168.46789795800578,168.46789795800578,168.46789795800578,168.46789795800578,168.48462179099442,169.46772999997484,169.46772999997484,169.92589137499453,z,1,0.4522443750174716,None,,,,,2,001,2025-10-01_11h03.31.332, Motor Sequence Learning,,2025.1.1,None,2025-10-01 11h03.38.396007 +0530,
-50,x,72,0,18,x,1,0.3508354160003364,None,18,0,72,0,,,,,169.93083812500117,,169.92610954097472,169.93083812500117,170.92431024997495,170.92431024997495,170.92431024997495,170.92431024997495,170.92431024997495,171.9242637080024,171.9242637080024,172.28238216601312,x,1,0.3508354160003364,None,,,,,2,001,2025-10-01_11h03.31.332, Motor Sequence Learning,,2025.1.1,None,2025-10-01 11h03.38.396007 +0530,
150,v,73,1,18,v,1,0.2912192500079982,None,18,1,73,1,,,,,172.28698233299656,,172.28269233298488,172.28698233299656,173.26754616596736,173.26754616596736,173.26754616596736,173.26754616596736,173.28477374999784,174.2676572909695,174.2676572909695,174.56466008297866,v,1,0.2912192500079982,None,,,,,2,001,2025-10-01_11h03.31.332, Motor Sequence Learning,,2025.1.1,None,2025-10-01 11h03.38.396007 +0530,
50,c,74,2,18,c,1,0.3248425829806365,None,18,2,74,2,,,,,174.5680261660018,,174.56484654097585,174.5680261660018,175.5515256249928,175.5515256249928,175.5515256249928,175.5515256249928,175.56486874999246,176.55101966601796,176.55101966601796,176.88205800001742,c,1,0.3248425829806365,None,,,,,2,001,2025-10-01_11h03.31.332, Motor Sequence Learning,,2025.1.1,None,2025-10-01 11h03.38.396007 +0530,
-150,z,75,3,18,z,1,0.5142412490095012,None,18,3,75,3,,,,,176.88623320800252,,176.88230120798107,176.88623320800252,177.87516645801952,177.87516645801952,177.87516645801952,177.87516645801952,177.8815706250025,178.87554400000954,178.87554400000954,179.39261525002075,z,1,0.5142412490095012,None,,,,,2,001,2025-10-01_11h03.31.332, Motor Sequence Learning,,2025.1.1,None,2025-10-01 11h03.38.396007 +0530,
-50,x,76,0,19,x,1,0.28254054102580994,None,19,0,76,0,,,,,179.39763274998404,,179.39284962497186,179.39763274998404,180.3913959999918,180.3913959999918,180.3913959999918,180.3913959999918,180.3913959999918,181.39123391598696,181.39123391598696,181.68235025001923,x,1,0.28254054102580994,None,,,,,2,001,2025-10-01_11h03.31.332, Motor Sequence Learning,,2025.1.1,None,2025-10-01 11h03.38.396007 +0530,
150,v,77,1,19,v,1,0.3137253750464879,None,19,1,77,1,,,,,181.68718070798786,,181.68262879102258,181.68718070798786,182.66901125002187,182.66901125002187,182.66901125002187,182.66901125002187,182.69120716600446,183.66897200001404,183.66897200001404,183.9855240409961,v,1,0.3137253750464879,None,,,,,2,001,2025-10-01_11h03.31.332, Motor Sequence Learning,,2025.1.1,None,2025-10-01 11h03.38.396007 +0530,
50,c,78,2,19,c,1,0.33203275001142174,None,19,2,78,2,,,,,183.9982993750018,,183.98576958297053,183.9982993750018,184.9815788330161,184.9815788330161,184.9815788330161,184.9815788330161,184.98473529098555,185.98455895797815,185.98455895797815,186.3183557909797,c,1,0.33203275001142174,None,,,,,2,001,2025-10-01_11h03.31.332, Motor Sequence Learning,,2025.1.1,None,2025-10-01 11h03.38.396007 +0530,
-150,z,79,3,19,z,1,0.28684191597858444,None,19,3,79,3,,,,,186.33160791598493,,186.31859704101225,186.33160791598493,187.31494274997385,187.31494274997385,187.31494274997385,187.31494274997385,187.31786116596777,188.3176507499884,188.3176507499884,188.60546262498247,z,1,0.28684191597858444,None,,,,,2,001,2025-10-01_11h03.31.332, Motor Sequence Learning,,2025.1.1,None,2025-10-01 11h03.38.396007 +0530,
-50,x,80,0,20,x,1,0.40616016602143645,None,20,0,80,0,,,,,188.61498324997956,,188.60570479097078,188.61498324997956,189.6013399999938,189.6013399999938,189.6013399999938,189.6013399999938,189.6013399999938,190.60137112496886,190.60137112496886,191.01590862497687,x,1,0.40616016602143645,None,,,,,2,001,2025-10-01_11h03.31.332, Motor Sequence Learning,,2025.1.1,None,2025-10-01 11h03.38.396007 +0530,
150,v,81,1,20,v,1,0.3074712910456583,None,20,1,81,1,,,,,191.02541345800273,,191.01625683298334,191.02541345800273,192.01398400001926,192.01398400001926,192.01398400001926,192.01398400001926,192.01716275000945,193.00205825001467,193.00205825001467,193.31602741597453,v,1,0.3074712910456583,None,,,,,2,001,2025-10-01_11h03.31.332, Motor Sequence Learning,,2025.1.1,None,2025-10-01 11h03.38.396007 +0530,
50,c,82,2,20,c,1,0.2874237489886582,None,20,2,82,2,,,,,193.32443862501532,,193.31628066598205,193.32443862501532,194.31495995802106,194.31495995802106,194.31495995802106,194.31495995802106,194.32581966597354,195.3148577910033,195.3148577910033,195.61575687502045,c,1,0.2874237489886582,None,,,,,2,001,2025-10-01_11h03.31.332, Motor Sequence Learning,,2025.1.1,None,2025-10-01 11h03.38.396007 +0530,
-150,z,83,3,20,z,1,0.4829825820052065,None,20,3,83,3,,,,,195.6202153749764,,195.61604225001065,195.6202153749764,196.60131133301184,196.60131133301184,196.60131133301184,196.60131133301184,196.6189486659714,197.60126529098488,197.60126529098488,198.08584620797774,z,1,0.4829825820052065,None,,,,,2,001,2025-10-01_11h03.31.332, Motor Sequence Learning,,2025.1.1,None,2025-10-01 11h03.38.396007 +0530,
-50,x,84,0,21,x,1,0.3050569159677252,None,21,0,84,0,,,,,198.0982947910088,,198.08613358298317,198.0982947910088,199.08539008296793,199.08539008296793,199.08539008296793,199.08539008296793,199.08539008296793,200.08144833298866,200.08144833298866,200.39875200000824,x,1,0.3050569159677252,None,,,,,2,001,2025-10-01_11h03.31.332, Motor Sequence Learning,,2025.1.1,None,2025-10-01 11h03.38.396007 +0530,
150,v,85,1,21,v,1,0.24056291597662494,None,21,1,85,1,,,,,200.40345733298454,,200.39902095799334,200.40345733298454,201.38961374998325,201.38961374998325,201.38961374998325,201.38961374998325,201.3983702500118,202.38474787498126,202.38474787498126,202.63232466601767,v,1,0.24056291597662494,None,,,,,2,001,2025-10-01_11h03.31.332, Motor Sequence Learning,,2025.1.1,None,2025-10-01 11h03.38.396007 +0530,
50,c,86,2,21,c,1,0.31103524996433407,None,21,2,86,2,,,,,202.63683183299145,,202.6325540000107,202.63683183299145,203.61809983296553,203.61809983296553,203.61809983296553,203.61809983296553,203.63440008298494,204.6182644579676,204.6182644579676,204.93260720797116,c,1,0.31103524996433407,None,,,,,2,001,2025-10-01_11h03.31.332, Motor Sequence Learning,,2025.1.1,None,2025-10-01 11h03.38.396007 +0530,
-150,z,87,3,21,z,1,0.3364256659988314,None,21,3,87,3,,,,,204.94169683300424,,204.93291162501555,204.94169683300424,205.93148483301047,205.93148483301047,205.93148483301047,205.93148483301047,205.94135491596535,206.93157595797675,206.93157595797675,207.27581037499476,z,1,0.3364256659988314,None,,,,,2,001,2025-10-01_11h03.31.332, Motor Sequence Learning,,2025.1.1,None,2025-10-01 11h03.38.396007 +0530,
-50,x,88,0,22,x,1,0.3568659989978187,None,22,0,88,0,,,,,207.28057449997868,,207.27601937501458,207.28057449997868,208.27170566597488,208.27170566597488,208.27170566597488,208.27170566597488,208.27170566597488,209.27159399999073,209.27159399999073,209.63227195799118,x,1,0.3568659989978187,None,,,,,2,001,2025-10-01_11h03.31.332, Motor Sequence Learning,,2025.1.1,None,2025-10-01 11h03.38.396007 +0530,
150,v,89,1,22,v,1,0.34652341599576175,None,22,1,89,1,,,,,209.6348514999845,,209.63253587501822,209.6348514999845,210.61812170798657,210.61812170798657,210.61812170798657,210.61812170798657,210.63160708302166,211.61843674996635,211.61843674996635,211.96860766597092,v,1,0.34652341599576175,None,,,,,2,001,2025-10-01_11h03.31.332, Motor Sequence Learning,,2025.1.1,None,2025-10-01 11h03.38.396007 +0530,
50,c,90,2,22,c,1,0.49810408300254494,None,22,2,90,2,,,,,211.98160729097435,,211.96885200001998,211.98160729097435,212.96494395798072,212.96494395798072,212.96494395798072,212.96494395798072,212.967739832995,213.9648701249971,213.9648701249971,214.46558458299842,c,1,0.49810408300254494,None,,,,,2,001,2025-10-01_11h03.31.332, Motor Sequence Learning,,2025.1.1,None,2025-10-01 11h03.38.396007 +0530,
-150,z,91,3,22,z,1,0.6729018740006723,None,22,3,91,3,,,,,214.47535829100525,,214.4658416250022,214.47535829100525,215.4520986659918,215.4520986659918,215.4520986659918,215.4520986659918,215.47591149999062,216.45204004098196,216.45204004098196,217.1318103329977,z,1,0.6729018740006723,None,,,,,2,001,2025-10-01_11h03.31.332, Motor Sequence Learning,,2025.1.1,None,2025-10-01 11h03.38.396007 +0530,
-50,x,92,0,23,x,1,0.4323793329531327,None,23,0,92,0,,,,,217.13718404097017,,217.1321131659788,217.13718404097017,218.11803358298494,218.11803358298494,218.11803358298494,218.11803358298494,218.13437637500465,219.11846620799042,219.11846620799042,219.55233333300566,x,1,0.4323793329531327,None,,,,,2,001,2025-10-01_11h03.31.332, Motor Sequence Learning,,2025.1.1,None,2025-10-01 11h03.38.396007 +0530,
150,v,93,1,23,v,1,0.274709374003578,None,23,1,93,1,,,,,219.56503145798342,,219.55260145798093,219.56503145798342,220.54819541599136,220.54819541599136,220.54819541599136,220.54819541599136,220.551259165979,221.548140082974,221.548140082974,221.83219466597075,v,1,0.274709374003578,None,,,,,2,001,2025-10-01_11h03.31.332, Motor Sequence Learning,,2025.1.1,None,2025-10-01 11h03.38.396007 +0530,
50,c,94,2,23,c,1,0.5901548740221187,None,23,2,94,2,,,,,221.84170337498654,,221.83248187496793,221.84170337498654,222.81766012497246,222.81766012497246,222.81766012497246,222.81766012497246,222.8353522910038,223.81765341601567,223.81765341601567,224.41583358298521,c,1,0.5901548740221187,None,,,,,2,001,2025-10-01_11h03.31.332, Motor Sequence Learning,,2025.1.1,None,2025-10-01 11h03.38.396007 +0530,
-150,z,95,3,23,z,1,0.3219760410138406,None,23,3,95,3,,,,,224.42118075001054,,224.41618258302333,224.42118075001054,225.4148052079836,225.4148052079836,225.4148052079836,225.4148052079836,225.41824516601628,226.40075233299285,226.40075233299285,226.725785290997,z,1,0.3219760410138406,None,,,,,2,001,2025-10-01_11h03.31.332, Motor Sequence Learning,,2025.1.1,None,2025-10-01 11h03.38.396007 +0530,
-50,x,96,0,24,x,1,0.39113391598220915,None,24,0,96,0,,,,,226.73122041596798,,226.72605499997735,226.73122041596798,227.71469079097733,227.71469079097733,227.71469079097733,227.71469079097733,227.71756720799021,228.73162445798516,228.73162445798516,229.13217908301158,x,1,0.39113391598220915,None,,,,,2,001,2025-10-01_11h03.31.332, Motor Sequence Learning,,2025.1.1,None,2025-10-01 11h03.38.396007 +0530,
150,v,97,1,24,v,1,0.4049639579607174,None,24,1,97,1,,,,,229.1370914580184,,229.13243491598405,229.1370914580184,230.1181152079953,230.1181152079953,230.1181152079953,230.1181152079953,230.13457200000994,231.11799533298472,231.11799533298472,231.5322437909781,v,1,0.4049639579607174,None,,,,,2,001,2025-10-01_11h03.31.332, Motor Sequence Learning,,2025.1.1,None,2025-10-01 11h03.38.396007 +0530,
50,c,98,2,24,c,1,0.2834332080092281,None,24,2,98,2,,,,,231.5365688750171,,231.53250187501544,231.5365688750171,232.53082991600968,232.53082991600968,232.53082991600968,232.53082991600968,232.5344547079876,233.52010387496557,233.52010387496557,233.80491712497314,c,1,0.2834332080092281,None,,,,,2,001,2025-10-01_11h03.31.332, Motor Sequence Learning,,2025.1.1,None,2025-10-01 11h03.38.396007 +0530,
-150,z,99,3,24,z,1,0.3591758739785291,None,24,3,99,3,,,,,233.81449149997206,,233.80544308299432,233.81449149997206,234.8040099159698,234.8040099159698,234.8040099159698,234.8040099159698,234.8040099159698,235.80432179098716,235.80432179098716,236.16703850001795,z,1,0.3591758739785291,None,,,,,2,001,2025-10-01_11h03.31.332, Motor Sequence Learning,,2025.1.1,None,2025-10-01 11h03.38.396007 +0530,
-50,x,100,0,25,x,1,0.2264075829880312,None,25,0,100,0,,,,,236.17673529096646,,236.16762637498323,236.17673529096646,237.16508345800685,237.16508345800685,237.16508345800685,237.16508345800685,237.16999045800185,238.16499466600362,238.16499466600362,238.4002518329653,x,1,0.2264075829880312,None,,,,,2,001,2025-10-01_11h03.31.332, Motor Sequence Learning,,2025.1.1,None,2025-10-01 11h03.38.396007 +0530,
150,v,101,1,25,v,1,0.3042347489972599,None,25,1,101,1,,,,,238.41019895800855,,238.40079691598658,238.41019895800855,239.39830220799195,239.39830220799195,239.39830220799195,239.39830220799195,239.4034547500196,240.39819204097148,240.39819204097148,240.70548408298055,v,1,0.3042347489972599,None,,,,,2,001,2025-10-01_11h03.31.332, Motor Sequence Learning,,2025.1.1,None,2025-10-01 11h03.38.396007 +0530,
50,c,102,2,25,c,1,0.3745916659827344,None,25,2,102,2,,,,,240.73171899997396,,240.7060022910009,240.73171899997396,241.70390491600847,241.70390491600847,241.70390491600847,241.70390491600847,241.72049004101427,242.70371679100208,242.70371679100208,243.083880916005,c,1,0.3745916659827344,None,,,,,2,001,2025-10-01_11h03.31.332, Motor Sequence Learning,,2025.1.1,None,2025-10-01 11h03.38.396007 +0530,
-150,z,103,3,25,z,1,0.258807500009425,None,25,3,103,3,,,,,243.0939639999997,,243.0845319579821,243.0939639999997,244.08163887500996,244.08163887500996,244.08163887500996,244.08163887500996,244.08688091597287,245.08150833297987,245.08150833297987,245.35048933298094,z,1,0.258807500009425,None,,,,,2,001,2025-10-01_11h03.31.332, Motor Sequence Learning,,2025.1.1,None,2025-10-01 11h03.38.396007 +0530,
-50,x,104,0,26,x,1,0.17301687400322407,None,26,0,104,0,,,,,245.36088866600767,,245.35118300002068,245.36088866600767,246.34831320797093,246.34831320797093,246.34831320797093,246.34831320797093,246.3537650409853,247.3481856249855,247.3481856249855,247.53317512501962,x,1,0.17301687400322407,None,,,,,2,001,2025-10-01_11h03.31.332, Motor Sequence Learning,,2025.1.1,None,2025-10-01 11h03.38.396007 +0530,
150,v,105,1,26,v,1,0.41348870703950524,None,26,1,105,1,,,,,247.5426771659986,,247.53377266600728,247.5426771659986,248.53170270798728,248.53170270798728,248.53170270798728,248.53170270798728,248.53733545797877,249.5316212910111,249.5316212910111,249.95004475000314,v,1,0.41348870703950524,None,,,,,2,001,2025-10-01_11h03.31.332, Motor Sequence Learning,,2025.1.1,None,2025-10-01 11h03.38.396007 +0530,
50,c,106,2,26,c,1,0.49815645697526634,None,26,2,106,2,,,,,249.96029062499292,,249.95063354098238,249.96029062499292,250.94843341602245,250.94843341602245,250.94843341602245,250.94843341602245,250.95492841600208,251.94821316597518,251.94821316597518,252.45017404097598,c,1,0.49815645697526634,None,,,,,2,001,2025-10-01_11h03.31.332, Motor Sequence Learning,,2025.1.1,None,2025-10-01 11h03.38.396007 +0530,
-150,z,107,3,26,z,1,0.24593270698096603,None,26,3,107,3,,,,,252.4601660000044,,252.45072879100917,252.4601660000044,253.4483044159715,253.4483044159715,253.4483044159715,253.4483044159715,253.45342133298982,254.44816133298445,254.44816133298445,254.70003216597252,z,1,0.24593270698096603,None,,,,,2,001,2025-10-01_11h03.31.332, Motor Sequence Learning,,2025.1.1,None,2025-10-01 11h03.38.396007 +0530,
-50,x,108,0,27,x,1,0.4318091659806669,None,27,0,108,0,,,,,254.70984883297933,,254.7006074580131,254.70984883297933,255.69832245801808,255.69832245801808,255.69832245801808,255.69832245801808,255.70302183297463,256.6982189579867,256.6982189579867,257.1333744159783,x,1,0.4318091659806669,None,,,,,2,001,2025-10-01_11h03.31.332, Motor Sequence Learning,,2025.1.1,None,2025-10-01 11h03.38.396007 +0530,
150,v,109,1,27,v,1,0.33657704101642594,None,27,1,109,1,,,,,257.1435211250209,,257.13396408298286,257.1435211250209,258.13156379101565,258.13156379101565,258.13156379101565,258.13156379101565,258.13584391598124,259.131417541008,259.131417541008,259.4708023329731,v,1,0.33657704101642594,None,,,,,2,001,2025-10-01_11h03.31.332, Motor Sequence Learning,,2025.1.1,None,2025-10-01 11h03.38.396007 +0530,
50,c,110,2,27,c,1,0.32390904100611806,None,27,2,110,2,,,,,259.480781249993,,259.471307291009,259.480781249993,260.47064191597747,260.47064191597747,260.47064191597747,260.47064191597747,260.47064191597747,261.4707384160138,261.4707384160138,261.7998150829808,c,1,0.32390904100611806,None,,,,,2,001,2025-10-01_11h03.31.332, Motor Sequence Learning,,2025.1.1,None,2025-10-01 11h03.38.396007 +0530,
-150,z,111,3,27,z,1,0.3686847910284996,None,27,3,111,3,,,,,261.8074946249835,,261.80032695800764,261.8074946249835,262.79834704101086,262.79834704101086,262.79834704101086,262.79834704101086,262.803118041018,263.79818883299595,263.79818883299595,264.1720595409861,z,1,0.3686847910284996,None,,,,,2,001,2025-10-01_11h03.31.332, Motor Sequence Learning,,2025.1.1,None,2025-10-01 11h03.38.396007 +0530,
-50,x,112,0,28,x,1,0.3389584160177037,None,28,0,112,0,,,,,264.18076695798663,,264.17256487498526,264.18076695798663,265.1703347080038,265.1703347080038,265.1703347080038,265.1703347080038,265.1703347080038,266.1708701659809,266.1708701659809,266.51676616602344,x,1,0.3389584160177037,None,,,,,2,001,2025-10-01_11h03.31.332, Motor Sequence Learning,,2025.1.1,None,2025-10-01 11h03.38.396007 +0530,
150,v,113,1,28,v,1,0.2747786240070127,None,28,1,113,1,,,,,266.52692475001095,,266.51753137499327,266.52692475001095,267.5147783749853,267.5147783749853,267.5147783749853,267.5147783749853,267.5193814999657,268.5149246659712,268.5149246659712,268.79982129100244,v,1,0.2747786240070127,None,,,,,2,001,2025-10-01_11h03.31.332, Motor Sequence Learning,,2025.1.1,None,2025-10-01 11h03.38.396007 +0530,
50,c,114,2,28,c,1,0.27857433300232515,None,28,2,114,2,,,,,268.80959750001784,,268.80044520797674,268.80959750001784,269.79834241600474,269.79834241600474,269.79834241600474,269.79834241600474,269.80361416598316,270.798156749981,270.798156749981,271.08337466599187,c,1,0.27857433300232515,None,,,,,2,001,2025-10-01_11h03.31.332, Motor Sequence Learning,,2025.1.1,None,2025-10-01 11h03.38.396007 +0530,
-150,z,115,3,28,z,1,0.2581778739695437,None,28,3,115,3,,,,,271.09332350001205,,271.0839483750169,271.09332350001205,272.08161033299984,272.08161033299984,272.08161033299984,272.08161033299984,272.0863842910039,273.0815452079987,273.0815452079987,273.3500183330034,z,1,0.2581778739695437,None,,,,,2,001,2025-10-01_11h03.31.332, Motor Sequence Learning,,2025.1.1,None,2025-10-01 11h03.38.396007 +0530,
-50,x,116,0,29,x,1,0.2994475819868967,None,29,0,116,0,,,,,273.3600089579704,,273.35062350000953,273.3600089579704,274.34831033297814,274.34831033297814,274.34831033297814,274.34831033297814,274.3535642499919,275.3482072909828,275.3482072909828,275.649954915978,x,1,0.2994475819868967,None,,,,,2,001,2025-10-01_11h03.31.332, Motor Sequence Learning,,2025.1.1,None,2025-10-01 11h03.38.396007 +0530,
150,v,117,1,29,v,1,0.2812154989806004,None,29,1,117,1,,,,,275.6601488330052,,275.65050733298995,275.6601488330052,276.6481634579832,276.6481634579832,276.6481634579832,276.6481634579832,276.65318237501197,277.64834454096854,277.64834454096854,277.9332818330149,v,1,0.2812154989806004,None,,,,,2,001,2025-10-01_11h03.31.332, Motor Sequence Learning,,2025.1.1,None,2025-10-01 11h03.38.396007 +0530,
50,c,118,2,29,c,1,0.3286396660259925,None,29,2,118,2,,,,,277.9430960830068,,277.9338608329999,277.9430960830068,278.9315681249718,278.9315681249718,278.9315681249718,278.9315681249718,278.9362675829907,279.93143200001214,279.93143200001214,280.26677245798055,c,1,0.3286396660259925,None,,,,,2,001,2025-10-01_11h03.31.332, Motor Sequence Learning,,2025.1.1,None,2025-10-01 11h03.38.396007 +0530,
-150,z,119,3,29,z,1,0.276588290988002,None,29,3,119,3,,,,,280.2770791249932,,280.26751804101514,280.2770791249932,281.2648965829867,281.2648965829867,281.2648965829867,281.2648965829867,281.2695484160213,282.2648138329969,282.2648138329969,282.54985387501074,z,1,0.276588290988002,None,,,,,2,001,2025-10-01_11h03.31.332, Motor Sequence Learning,,2025.1.1,None,2025-10-01 11h03.38.396007 +0530,
-50,x,120,0,30,x,1,0.36146012402605265,None,30,0,120,0,,,,,282.55961858300725,,282.5504141660058,282.55961858300725,283.5481739999959,283.5481739999959,283.5481739999959,283.5481739999959,283.5523039579857,284.5480784159736,284.5480784159736,284.91672145802295,x,1,0.36146012402605265,None,,,,,2,001,2025-10-01_11h03.31.332, Motor Sequence Learning,,2025.1.1,None,2025-10-01 11h03.38.396007 +0530,
150,v,121,1,30,v,1,0.5247928330209106,None,30,1,121,1,,,,,284.92667012498714,,284.91741095797624,284.92667012498714,285.9147202500026,285.9147202500026,285.9147202500026,285.9147202500026,285.9187666659709,286.91464945802,286.91464945802,287.4499882499804,v,1,0.5247928330209106,None,,,,,2,001,2025-10-01_11h03.31.332, Motor Sequence Learning,,2025.1.1,None,2025-10-01 11h03.38.396007 +0530,
50,c,122,2,30,c,1,0.30199599999468774,None,30,2,122,2,,,,,287.46003754099365,,287.45070787501754,287.46003754099365,288.4481543750153,288.4481543750153,288.4481543750153,288.4481543750153,288.453003624978,289.448205499968,289.448205499968,289.7546828750055,c,1,0.30199599999468774,None,,,,,2,001,2025-10-01_11h03.31.332, Motor Sequence Learning,,2025.1.1,None,2025-10-01 11h03.38.396007 +0530,
-150,z,123,3,30,z,1,0.32750887400470674,None,30,3,123,3,,,,,289.76412137498846,,289.7552219160134,289.76412137498846,290.7530844580033,290.7530844580033,290.7530844580033,290.7530844580033,290.7530844580033,291.7538155830116,291.7538155830116,292.0833853330114,z,1,0.32750887400470674,None,,,,,2,001,2025-10-01_11h03.31.332, Motor Sequence Learning,,2025.1.1,None,2025-10-01 11h03.38.396007 +0530,
-50,x,124,0,31,x,1,0.3407620819634758,None,31,0,124,0,,,,,292.0927930409671,,292.08391758298967,292.0927930409671,293.08140987501247,293.08140987501247,293.08140987501247,293.08140987501247,293.08544712502044,294.0814653749694,294.0814653749694,294.4331669160165,x,1,0.3407620819634758,None,,,,,2,001,2025-10-01_11h03.31.332, Motor Sequence Learning,,2025.1.1,None,2025-10-01 11h03.38.396007 +0530,
150,v,125,1,31,v,1,0.2807662910199724,None,31,1,125,1,,,,,294.4439182910137,,294.433777624974,294.4439182910137,295.4315591250197,295.4315591250197,295.4315591250197,295.4315591250197,295.43618183297804,296.4314604999963,296.4314604999963,296.71663300000364,v,1,0.2807662910199724,None,,,,,2,001,2025-10-01_11h03.31.332, Motor Sequence Learning,,2025.1.1,None,2025-10-01 11h03.38.396007 +0530,
50,c,126,2,31,c,1,0.35536604101071134,None,31,2,126,2,,,,,296.72632274997886,,296.717208832968,296.72632274997886,297.7148870410165,297.7148870410165,297.7148870410165,297.7148870410165,297.7200264579733,298.7147591249668,298.7147591249668,299.083368957974,c,1,0.35536604101071134,None,,,,,2,001,2025-10-01_11h03.31.332, Motor Sequence Learning,,2025.1.1,None,2025-10-01 11h03.38.396007 +0530,
-150,z,127,3,31,z,1,0.36774379102280363,None,31,3,127,3,,,,,299.0933516250225,,299.0841093750205,299.0933516250225,300.08153362496523,300.08153362496523,300.08153362496523,300.08153362496523,300.0867118330207,301.0812817909755,301.0812817909755,301.4541512079886,z,1,0.36774379102280363,None,,,,,2,001,2025-10-01_11h03.31.332, Motor Sequence Learning,,2025.1.1,None,2025-10-01 11h03.38.396007 +0530,
-50,x,128,0,32,x,1,0.2888425830169581,None,32,0,128,0,,,,,301.46404391597025,,301.4547166249831,301.46404391597025,302.4534377909731,302.4534377909731,302.4534377909731,302.4534377909731,302.4534377909731,303.454252208001,303.454252208001,303.7498488749843,x,1,0.2888425830169581,None,,,,,2,001,2025-10-01_11h03.31.332, Motor Sequence Learning,,2025.1.1,None,2025-10-01 11h03.38.396007 +0530,
150,v,129,1,32,v,1,0.42694091598968953,None,32,1,129,1,,,,,303.7593758329749,,303.75040454097325,303.7593758329749,304.7481736249756,304.7481736249756,304.7481736249756,304.7481736249756,304.75338016601745,305.7479952080175,305.7479952080175,306.1836637079832,v,1,0.42694091598968953,None,,,,,2,001,2025-10-01_11h03.31.332, Motor Sequence Learning,,2025.1.1,None,2025-10-01 11h03.38.396007 +0530,
50,c,130,2,32,c,1,0.31436066603055224,None,32,2,130,2,,,,,306.19331554102246,,306.1843036659993,306.19331554102246,307.1814368329942,307.1814368329942,307.1814368329942,307.1814368329942,307.1868756659678,308.1815389160183,308.1815389160183,308.4998776660068,c,1,0.31436066603055224,None,,,,,2,001,2025-10-01_11h03.31.332, Motor Sequence Learning,,2025.1.1,None,2025-10-01 11h03.38.396007 +0530,
-150,z,131,3,32,z,1,0.445661706966348,None,32,3,131,3,,,,,308.5095997499884,,308.5004675000091,308.5095997499884,309.49806641601026,309.49806641601026,309.49806641601026,309.49806641601026,309.503155125014,310.498272583005,310.498272583005,310.94989099999657,z,1,0.445661706966348,None,,,,,2,001,2025-10-01_11h03.31.332, Motor Sequence Learning,,2025.1.1,None,2025-10-01 11h03.38.396007 +0530,
-50,x,132,0,33,x,1,0.3296464580344036,None,33,0,132,0,,,,,310.95946341601666,,310.9504350409843,310.95946341601666,311.94801545800874,311.94801545800874,311.94801545800874,311.94801545800874,311.9530201659654,312.9481241250178,312.9481241250178,313.2832642910071,x,1,0.3296464580344036,None,,,,,2,001,2025-10-01_11h03.31.332, Motor Sequence Learning,,2025.1.1,None,2025-10-01 11h03.38.396007 +0530,
150,v,133,1,33,v,1,0.5673182909958996,None,33,1,133,1,,,,,313.29305504099466,,313.2839252909762,313.29305504099466,314.2814011659939,314.2814011659939,314.2814011659939,314.2814011659939,314.2867480000132,315.28144887497183,315.28144887497183,315.85528124996927,v,1,0.5673182909958996,None,,,,,2,001,2025-10-01_11h03.31.332, Motor Sequence Learning,,2025.1.1,None,2025-10-01 11h03.38.396007 +0530,
50,c,134,2,33,c,1,0.4054566659615375,None,33,2,134,2,,,,,315.8645376249915,,315.8558071660227,315.8645376249915,316.8536551659927,316.8536551659927,316.8536551659927,316.8536551659927,316.8536551659927,317.8531661659945,317.8531661659945,318.2663918749895,c,1,0.4054566659615375,None,,,,,2,001,2025-10-01_11h03.31.332, Motor Sequence Learning,,2025.1.1,None,2025-10-01 11h03.38.396007 +0530,
-150,z,135,3,33,z,1,0.6195354569936171,None,33,3,135,3,,,,,318.2762997910031,,318.26699379098136,318.2762997910031,319.2648700000136,319.2648700000136,319.2648700000136,319.2648700000136,319.2699554999708,320.26508412498515,320.26508412498515,320.8876546249958,z,1,0.6195354569936171,None,,,,,2,001,2025-10-01_11h03.31.332, Motor Sequence Learning,,2025.1.1,None,2025-10-01 11h03.38.396007 +0530,
-50,x,136,0,34,x,1,0.46843533299397677,None,34,0,136,0,,,,,320.9152392499964,,320.8882160409703,320.9152392499964,321.8876508329995,321.8876508329995,321.8876508329995,321.8876508329995,321.90261737501714,322.88709174998803,322.88709174998803,323.36665287497453,x,1,0.46843533299397677,None,,,,,2,001,2025-10-01_11h03.31.332, Motor Sequence Learning,,2025.1.1,None,2025-10-01 11h03.38.396007 +0530,
150,v,137,1,34,v,1,0.3528462069807574,None,34,1,137,1,,,,,323.3764575829846,,323.36723216599785,323.3764575829846,324.364805915975,324.364805915975,324.364805915975,324.364805915975,324.3694357909844,325.36467304098187,325.36467304098187,325.72043870796915,v,1,0.3528462069807574,None,,,,,2,001,2025-10-01_11h03.31.332, Motor Sequence Learning,,2025.1.1,None,2025-10-01 11h03.38.396007 +0530,
50,c,138,2,34,c,1,0.3466442489880137,None,34,2,138,2,,,,,325.730651165999,,325.7210074159666,325.730651165999,326.71945733297616,326.71945733297616,326.71945733297616,326.71945733297616,326.71945733297616,327.719845665968,327.719845665968,328.07102824997855,c,1,0.3466442489880137,None,,,,,2,001,2025-10-01_11h03.31.332, Motor Sequence Learning,,2025.1.1,None,2025-10-01 11h03.38.396007 +0530,
-150,z,139,3,34,z,1,0.30461195803945884,None,34,3,139,3,,,,,328.08051679097116,,328.071603999997,328.08051679097116,329.07064570800867,329.07064570800867,329.07064570800867,329.07064570800867,329.07064570800867,330.0698250000132,330.0698250000132,330.38315491599496,z,1,0.30461195803945884,None,,,,,2,001,2025-10-01_11h03.31.332, Motor Sequence Learning,,2025.1.1,None,2025-10-01 11h03.38.396007 +0530,
-50,x,140,0,35,x,1,0.3640720819821581,None,35,0,140,0,,,,,330.3922296249657,,330.3837160000112,330.3922296249657,331.38152870797785,331.38152870797785,331.38152870797785,331.38152870797785,331.3866014999803,332.38130762497894,332.38130762497894,332.7497909999802,x,1,0.3640720819821581,None,,,,,2,001,2025-10-01_11h03.31.332, Motor Sequence Learning,,2025.1.1,None,2025-10-01 11h03.38.396007 +0530,
150,v,141,1,35,v,1,0.34726704098284245,None,35,1,141,1,,,,,332.75900329102296,,332.75037037499715,332.75900329102296,333.7480909160222,333.7480909160222,333.7480909160222,333.7480909160222,333.7529657499981,334.7481489579659,334.7481489579659,335.1001375829801,v,1,0.34726704098284245,None,,,,,2,001,2025-10-01_11h03.31.332, Motor Sequence Learning,,2025.1.1,None,2025-10-01 11h03.38.396007 +0530,
50,c,142,2,35,c,1,0.34841162501834333,None,35,2,142,2,,,,,335.1097260409733,,335.1008306660224,335.1097260409733,336.098199540982,336.098199540982,336.098199540982,336.098199540982,336.1027984999819,337.0979165000026,337.0979165000026,337.44989870797144,c,1,0.34841162501834333,None,,,,,2,001,2025-10-01_11h03.31.332, Motor Sequence Learning,,2025.1.1,None,2025-10-01 11h03.38.396007 +0530,
-150,z,143,3,35,z,1,0.23022974899504334,None,35,3,143,3,,,,,337.45900912501384,,337.45047404099023,337.45900912501384,338.44801474997075,338.44801474997075,338.44801474997075,338.44801474997075,338.45323975000065,339.4480869160034,339.4480869160034,339.68371725000907,z,1,0.23022974899504334,None,,,,,2,001,2025-10-01_11h03.31.332, Motor Sequence Learning,,2025.1.1,None,2025-10-01 11h03.38.396007 +0530,
-50,x,144,0,36,x,1,0.24683429097058252,None,36,0,144,0,,,,,339.6931325829937,,339.6843792080181,339.6931325829937,340.6813870409969,340.6813870409969,340.6813870409969,340.6813870409969,340.6866520830081,341.68138904101215,341.68138904101215,341.9333067499683,x,1,0.24683429097058252,None,,,,,2,001,2025-10-01_11h03.31.332, Motor Sequence Learning,,2025.1.1,None,2025-10-01 11h03.38.396007 +0530,
150,v,145,1,36,v,1,0.3577586660394445,None,36,1,145,1,,,,,341.94298587500816,,341.9338547909865,341.94298587500816,342.931483207969,342.931483207969,342.931483207969,342.931483207969,342.9361256249831,343.93139408301795,343.93139408301795,344.29985949996626,v,1,0.3577586660394445,None,,,,,2,001,2025-10-01_11h03.31.332, Motor Sequence Learning,,2025.1.1,None,2025-10-01 11h03.38.396007 +0530,
50,c,146,2,36,c,1,0.2689906659652479,None,36,2,146,2,,,,,344.30954283301253,,344.30045245797373,344.30954283301253,345.2980660829926,345.2980660829926,345.2980660829926,345.2980660829926,345.30287629098166,346.2979984160047,346.2979984160047,346.5716515830136,c,1,0.2689906659652479,None,,,,,2,001,2025-10-01_11h03.31.332, Motor Sequence Learning,,2025.1.1,None,2025-10-01 11h03.38.396007 +0530,
-150,z,147,3,36,z,1,0.3702422490459867,None,36,3,147,3,,,,,346.58089354098774,,346.5721856660093,346.58089354098774,347.56961345800664,347.56961345800664,347.56961345800664,347.56961345800664,347.56961345800664,348.5698511250084,348.5698511250084,348.94981670798734,z,1,0.3702422490459867,None,,,,,2,001,2025-10-01_11h03.31.332, Motor Sequence Learning,,2025.1.1,None,2025-10-01 11h03.38.396007 +0530,
-50,x,148,0,37,x,1,0.3821663740091026,None,37,0,148,0,,,,,348.9594441250083,,348.95041020796634,348.9594441250083,349.94779591599945,349.94779591599945,349.94779591599945,349.94779591599945,349.95234762498876,350.9478733749711,350.9478733749711,351.3330979999737,x,1,0.3821663740091026,None,,,,,2,001,2025-10-01_11h03.31.332, Motor Sequence Learning,,2025.1.1,None,2025-10-01 11h03.38.396007 +0530,
150,v,149,1,37,v,1,0.3247198330354877,None,37,1,149,1,,,,,351.3425966660143,,351.33367454097606,351.3425966660143,352.3314050830086,352.3314050830086,352.3314050830086,352.3314050830086,352.3362032499863,353.33125608297996,353.33125608297996,353.6663049159688,v,1,0.3247198330354877,None,,,,,2,001,2025-10-01_11h03.31.332, Motor Sequence Learning,,2025.1.1,None,2025-10-01 11h03.38.396007 +0530,
50,c,150,2,37,c,1,0.30019829102093354,None,37,2,150,2,,,,,353.67597154097166,,353.6669126250199,353.67597154097166,354.66454199998407,354.66454199998407,354.66454199998407,354.66454199998407,354.6686420000042,355.66462616599165,355.66462616599165,355.97732858301606,c,1,0.30019829102093354,None,,,,,2,001,2025-10-01_11h03.31.332, Motor Sequence Learning,,2025.1.1,None,2025-10-01 11h03.38.396007 +0530,
-150,z,151,3,37,z,1,0.29555333202006295,None,37,3,151,3,,,,,355.981348124973,,355.977779207984,355.981348124973,356.9702415000065,356.9702415000065,356.9702415000065,356.9702415000065,356.9702415000065,357.97020774998236,357.97020774998236,358.2720753750182,z,1,0.29555333202006295,None,,,,,2,001,2025-10-01_11h03.31.332, Motor Sequence Learning,,2025.1.1,None,2025-10-01 11h03.38.396007 +0530,
-50,x,152,0,38,x,1,0.42968199896859005,None,38,0,152,0,,,,,358.2812822079868,,358.2726222079946,358.2812822079868,359.2694485000102,359.2694485000102,359.2694485000102,359.2694485000102,359.2694485000102,360.27009150001686,360.27009150001686,360.7038928749971,x,1,0.42968199896859005,None,,,,,2,001,2025-10-01_11h03.31.332, Motor Sequence Learning,,2025.1.1,None,2025-10-01 11h03.38.396007 +0530,
150,v,153,1,38,v,1,0.5074677069787867,None,38,1,153,1,,,,,360.7136567499838,,360.704448583012,360.7136567499838,361.70374579099007,361.70374579099007,361.70374579099007,361.70374579099007,361.70374579099007,362.7032926660031,362.7032926660031,363.2177217080025,v,1,0.5074677069787867,None,,,,,2,001,2025-10-01_11h03.31.332, Motor Sequence Learning,,2025.1.1,None,2025-10-01 11h03.38.396007 +0530,
50,c,154,2,38,c,1,0.557041373976972,None,38,2,154,2,,,,,363.22738808300346,,363.21849991596537,363.22738808300346,364.21459237497766,364.21459237497766,364.21459237497766,364.21459237497766,364.2188870829996,365.21460929099703,365.21460929099703,365.78317737497855,c,1,0.557041373976972,None,,,,,2,001,2025-10-01_11h03.31.332, Motor Sequence Learning,,2025.1.1,None,2025-10-01 11h03.38.396007 +0530,
-150,z,155,3,38,z,1,0.23742862400831655,None,38,3,155,3,,,,,365.79239912499906,,365.78373679099604,365.79239912499906,366.7813625410199,366.7813625410199,366.7813625410199,366.7813625410199,366.78620600001886,367.7812517500133,367.7812517500133,368.02037899999414,z,1,0.23742862400831655,None,,,,,2,001,2025-10-01_11h03.31.332, Motor Sequence Learning,,2025.1.1,None,2025-10-01 11h03.38.396007 +0530,
-50,x,156,0,39,x,1,0.38636024901643395,None,39,0,156,0,,,,,368.03050241601886,,368.02091304102214,368.03050241601886,369.0146520829876,369.0146520829876,369.0146520829876,369.0146520829876,369.0198524160078,370.02018483297434,370.02018483297434,370.41655895800795,x,1,0.38636024901643395,None,,,,,2,001,2025-10-01_11h03.31.332, Motor Sequence Learning,,2025.1.1,None,2025-10-01 11h03.38.396007 +0530,
150,v,157,1,39,v,1,0.30704629101091996,None,39,1,157,1,,,,,370.42588516598335,,370.4171399999759,370.42588516598335,371.4146877080202,371.4146877080202,371.4146877080202,371.4146877080202,371.41959574999055,372.41456249996554,372.41456249996554,372.73382429097546,v,1,0.30704629101091996,None,,,,,2,001,2025-10-01_11h03.31.332, Motor Sequence Learning,,2025.1.1,None,2025-10-01 11h03.38.396007 +0530,
50,c,158,2,39,c,1,0.3322244580485858,None,39,2,158,2,,,,,372.7430417080177,,372.73437758302316,372.7430417080177,373.7313872909872,373.7313872909872,373.7313872909872,373.7313872909872,373.7360280409921,374.7312992499792,374.7312992499792,375.0665252080071,c,1,0.3322244580485858,None,,,,,2,001,2025-10-01_11h03.31.332, Motor Sequence Learning,,2025.1.1,None,2025-10-01 11h03.38.396007 +0530,
-150,z,159,3,39,z,1,0.3078667909721844,None,39,3,159,3,,,,,375.0757065829821,,375.06708837498445,375.0757065829821,376.06453887501266,376.06453887501266,376.06453887501266,376.06453887501266,376.06916970800376,377.064618540986,377.064618540986,377.38317979098065,z,1,0.3078667909721844,None,,,,,2,001,2025-10-01_11h03.31.332, Motor Sequence Learning,,2025.1.1,None,2025-10-01 11h03.38.396007 +0530,
-50,x,160,0,40,x,1,0.28906158200697973,None,40,0,160,0,,,,,377.39293504098896,,377.383948749979,377.39293504098896,378.3813116250094,378.3813116250094,378.3813116250094,378.3813116250094,378.38668408297235,379.38129879097687,379.38129879097687,379.6812015000032,x,1,0.28906158200697973,None,,,,,2,001,2025-10-01_11h03.31.332, Motor Sequence Learning,,2025.1.1,None,2025-10-01 11h03.38.396007 +0530,
150,v,161,1,40,v,1,0.30554437497630715,None,40,1,161,1,,,,,379.68553083296865,,379.68174454098335,379.68553083296865,380.6708435409819,380.6708435409819,380.6708435409819,380.6708435409819,380.68140833301004,381.670779875014,381.670779875014,381.9830832500011,v,1,0.30554437497630715,None,,,,,2,001,2025-10-01_11h03.31.332, Motor Sequence Learning,,2025.1.1,None,2025-10-01 11h03.38.396007 +0530,
50,c,162,2,40,c,1,0.27513858303427696,None,40,2,162,2,,,,,381.9930085829692,,381.98366337496554,381.9930085829692,382.98127200000454,382.98127200000454,382.98127200000454,382.98127200000454,382.98544054100057,383.9811326250201,383.9811326250201,384.266536250012,c,1,0.27513858303427696,None,,,,,2,001,2025-10-01_11h03.31.332, Motor Sequence Learning,,2025.1.1,None,2025-10-01 11h03.38.396007 +0530,
-150,z,163,3,40,z,1,0.31047954101813957,None,40,3,163,3,,,,,384.27657287498005,,384.2671070829965,384.27657287498005,385.2646374159958,385.2646374159958,385.2646374159958,385.2646374159958,385.2702273330069,386.26469916600036,386.26469916600036,386.58334362501046,z,1,0.31047954101813957,None,,,,,2,001,2025-10-01_11h03.31.332, Motor Sequence Learning,,2025.1.1,None,2025-10-01 11h03.38.396007 +0530,
-50,x,164,0,41,x,1,0.3010674160323106,None,41,0,164,0,,,,,386.5935042909696,,386.5840668330202,386.5935042909696,387.58138304098975,387.58138304098975,387.58138304098975,387.58138304098975,387.58673141599866,388.58105045801494,388.58105045801494,388.8889173329808,x,1,0.3010674160323106,None,,,,,2,001,2025-10-01_11h03.31.332, Motor Sequence Learning,,2025.1.1,None,2025-10-01 11h03.38.396007 +0530,
150,v,165,1,41,v,1,0.27322212397120893,None,41,1,165,1,,,,,388.90185054100584,,388.8894731659675,388.90185054100584,389.8880579160177,389.8880579160177,389.8880579160177,389.8880579160177,389.8978931250167,390.8870162909734,390.8870162909734,391.16642304096604,v,1,0.27322212397120893,None,,,,,2,001,2025-10-01_11h03.31.332, Motor Sequence Learning,,2025.1.1,None,2025-10-01 11h03.38.396007 +0530,
50,c,166,2,41,c,1,0.23737254098523408,None,41,2,166,2,,,,,391.17646241601324,,391.1670330829802,391.17646241601324,392.1645360409748,392.1645360409748,392.1645360409748,392.1645360409748,392.1692299999995,393.16466383298393,393.16466383298393,393.4047368330066,c,1,0.23737254098523408,None,,,,,2,001,2025-10-01_11h03.31.332, Motor Sequence Learning,,2025.1.1,None,2025-10-01 11h03.38.396007 +0530,
-150,z,167,3,41,z,1,0.27947937400313094,None,41,3,167,3,,,,,393.41435120801907,,393.40529854100896,393.41435120801907,394.40340658300556,394.40340658300556,394.40340658300556,394.40340658300556,394.40340658300556,395.40354779100744,395.40354779100744,395.6871104579768,z,1,0.27947937400313094,None,,,,,2,001,2025-10-01_11h03.31.332, Motor Sequence Learning,,2025.1.1,None,2025-10-01 11h03.38.396007 +0530,
-50,x,168,0,42,x,1,0.31188283202936873,None,42,0,168,0,,,,,395.6969425830175,,395.68764404096873,395.6969425830175,396.68697970797075,396.68697970797075,396.68697970797075,396.68697970797075,396.68697970797075,397.6811640409869,397.6811640409869,398.0002157909912,x,1,0.31188283202936873,None,,,,,2,001,2025-10-01_11h03.31.332, Motor Sequence Learning,,2025.1.1,None,2025-10-01 11h03.38.396007 +0530,
150,v,169,1,42,v,1,0.30097837396897376,None,42,1,169,1,,,,,398.0101675830083,,398.0008965000161,398.0101675830083,398.99783883302007,398.99783883302007,398.99783883302007,398.99783883302007,399.00319050002145,399.9979399580043,399.9979399580043,400.3045265409746,v,1,0.30097837396897376,None,,,,,2,001,2025-10-01_11h03.31.332, Motor Sequence Learning,,2025.1.1,None,2025-10-01 11h03.38.396007 +0530,
50,c,170,2,42,c,1,0.3336533739930019,None,42,2,170,2,,,,,400.31369679101044,,400.30506908299867,400.31369679101044,401.30362133297604,401.30362133297604,401.30362133297604,401.30362133297604,401.30362133297604,402.3032295409939,402.3032295409939,402.64981783297844,c,1,0.3336533739930019,None,,,,,2,001,2025-10-01_11h03.31.332, Motor Sequence Learning,,2025.1.1,None,2025-10-01 11h03.38.396007 +0530,
-150,z,171,3,42,z,1,0.266098749008961,None,42,3,171,3,,,,,402.65959916601423,,402.6505490409909,402.65959916601423,403.6479086659965,403.6479086659965,403.6479086659965,403.6479086659965,403.65314125001896,404.64777283300646,404.64777283300646,404.9163755829795,z,1,0.266098749008961,None,,,,,2,001,2025-10-01_11h03.31.332, Motor Sequence Learning,,2025.1.1,None,2025-10-01 11h03.38.396007 +0530,
-50,x,172,0,43,x,1,0.2643284570076503,None,43,0,172,0,,,,,404.9262473330018,,404.9169252499705,404.9262473330018,405.91458525002236,405.91458525002236,405.91458525002236,405.91458525002236,405.92003404098796,406.91447354102274,406.91447354102274,407.1830401250045,x,1,0.2643284570076503,None,,,,,2,001,2025-10-01_11h03.31.332, Motor Sequence Learning,,2025.1.1,None,2025-10-01 11h03.38.396007 +0530,
150,v,173,1,43,v,1,0.2816127910045907,None,43,1,173,1,,,,,407.19273337500636,,407.18358716601506,407.19273337500636,408.18131449999055,408.18131449999055,408.18131449999055,408.18131449999055,408.18654616602,409.1811618329957,409.1811618329957,409.4663289159653,v,1,0.2816127910045907,None,,,,,2,001,2025-10-01_11h03.31.332, Motor Sequence Learning,,2025.1.1,None,2025-10-01 11h03.38.396007 +0530,
50,c,174,2,43,c,1,0.31634849996771663,None,43,2,174,2,,,,,409.4757987909834,,409.4668590410147,409.4757987909834,410.46459187497385,410.46459187497385,410.46459187497385,410.46459187497385,410.46921258297516,411.46437762497226,411.46437762497226,411.78297841601307,c,1,0.31634849996771663,None,,,,,2,001,2025-10-01_11h03.31.332, Motor Sequence Learning,,2025.1.1,None,2025-10-01 11h03.38.396007 +0530,
-150,z,175,3,43,z,1,0.2934011240140535,None,43,3,175,3,,,,,411.7927227499895,,411.78353795799194,411.7927227499895,412.7812145000207,412.7812145000207,412.7812145000207,412.7812145000207,412.78579733299557,413.78117279097205,413.78117279097205,414.08325049997075,z,1,0.2934011240140535,None,,,,,2,001,2025-10-01_11h03.31.332, Motor Sequence Learning,,2025.1.1,None,2025-10-01 11h03.38.396007 +0530,
-50,x,176,0,44,x,1,0.2933003739453852,None,44,0,176,0,,,,,414.09310304099927,,414.08403137500864,414.09310304099927,415.0812134160078,415.0812134160078,415.0812134160078,415.0812134160078,415.08644479099894,416.08126016601454,416.08126016601454,416.3831369159743,x,1,0.2933003739453852,None,,,,,2,001,2025-10-01_11h03.31.332, Motor Sequence Learning,,2025.1.1,None,2025-10-01 11h03.38.396007 +0530,
150,v,177,1,44,v,1,0.2863656660192646,None,44,1,177,1,,,,,416.39300174999516,,416.3839044159977,416.39300174999516,417.38112745800754,417.38112745800754,417.38112745800754,417.38112745800754,417.3863277499913,418.38119429099606,418.38119429099606,418.6704755409737,v,1,0.2863656660192646,None,,,,,2,001,2025-10-01_11h03.31.332, Motor Sequence Learning,,2025.1.1,None,2025-10-01 11h03.38.396007 +0530,
50,c,178,2,44,c,1,0.39428349904483184,None,44,2,178,2,,,,,418.6804672909784,,418.67101808299776,418.6804672909784,419.67006883298745,419.67006883298745,419.67006883298745,419.67006883298745,419.67006883298745,420.6700953330146,420.6700953330146,421.06649050000124,c,1,0.39428349904483184,None,,,,,2,001,2025-10-01_11h03.31.332, Motor Sequence Learning,,2025.1.1,None,2025-10-01 11h03.38.396007 +0530,
-150,z,179,3,44,z,1,0.2590244579478167,None,44,3,179,3,,,,,421.0763189159916,,421.0671724160202,421.0763189159916,422.0646471660002,422.0646471660002,422.0646471660002,422.0646471660002,422.0700770000112,423.06448395800544,423.06448395800544,423.3335936249932,z,1,0.2590244579478167,None,,,,,2,001,2025-10-01_11h03.31.332, Motor Sequence Learning,,2025.1.1,None,2025-10-01 11h03.38.396007 +0530,
-50,x,180,0,45,x,1,0.24923170800320804,None,45,0,180,0,,,,,423.343689833011,,423.3345307079726,423.343689833011,424.33113562501967,424.33113562501967,424.33113562501967,424.33113562501967,424.3362729999935,425.33116683299886,425.33116683299886,425.583000832994,x,1,0.24923170800320804,None,,,,,2,001,2025-10-01_11h03.31.332, Motor Sequence Learning,,2025.1.1,None,2025-10-01 11h03.38.396007 +0530,
150,v,181,1,45,v,1,0.29938899900298566,None,45,1,181,1,,,,,425.59261304099346,,425.58356591599295,425.59261304099346,426.58113970799604,426.58113970799604,426.58113970799604,426.58113970799604,426.5857558749849,427.581064375001,427.581064375001,427.88297416601563,v,1,0.29938899900298566,None,,,,,2,001,2025-10-01_11h03.31.332, Motor Sequence Learning,,2025.1.1,None,2025-10-01 11h03.38.396007 +0530,
50,c,182,2,45,c,1,0.30600299895741045,None,45,2,182,2,,,,,427.89252095797565,,427.8835530829965,427.89252095797565,428.8811310000019,428.8811310000019,428.8811310000019,428.8811310000019,428.88653633301146,429.88119058299344,429.88119058299344,430.19976933300495,c,1,0.30600299895741045,None,,,,,2,001,2025-10-01_11h03.31.332, Motor Sequence Learning,,2025.1.1,None,2025-10-01 11h03.38.396007 +0530,
-150,z,183,3,45,z,1,0.37445779104018584,None,45,3,183,3,,,,,430.20927045797,,430.200338708004,430.20927045797,431.19779783301055,431.19779783301055,431.19779783301055,431.19779783301055,431.203009416,432.1978963330039,432.1978963330039,432.5830487909843,z,1,0.37445779104018584,None,,,,,2,001,2025-10-01_11h03.31.332, Motor Sequence Learning,,2025.1.1,None,2025-10-01 11h03.38.396007 +0530,
-50,x,184,0,46,x,1,0.5600809570169076,None,46,0,184,0,,,,,432.59293583297404,,432.58384062501136,432.59293583297404,433.5812186659896,433.5812186659896,433.5812186659896,433.5812186659896,433.5858870410011,434.5811741250218,434.5811741250218,435.1497688330128,x,1,0.5600809570169076,None,,,,,2,001,2025-10-01_11h03.31.332, Motor Sequence Learning,,2025.1.1,None,2025-10-01 11h03.38.396007 +0530,
150,v,185,1,46,v,1,0.23244891600916162,None,46,1,185,1,,,,,435.15956491598627,,435.1503447080031,435.15956491598627,436.1478179579717,436.1478179579717,436.1478179579717,436.1478179579717,436.1530237499974,437.14772537501995,437.14772537501995,437.38315987499664,v,1,0.23244891600916162,None,,,,,2,001,2025-10-01_11h03.31.332, Motor Sequence Learning,,2025.1.1,None,2025-10-01 11h03.38.396007 +0530,
50,c,186,2,46,c,1,0.4949031659634784,None,46,2,186,2,,,,,437.39225016598357,,437.383716833021,437.39225016598357,438.3814339999808,438.3814339999808,438.3814339999808,438.3814339999808,438.385898041015,439.3811455409741,439.3811455409741,439.88311354100006,c,1,0.4949031659634784,None,,,,,2,001,2025-10-01_11h03.31.332, Motor Sequence Learning,,2025.1.1,None,2025-10-01 11h03.38.396007 +0530,
-150,z,187,3,46,z,1,0.30098599899793044,None,46,3,187,3,,,,,439.8924310830189,,439.88365495798644,439.8924310830189,440.8812006249791,440.8812006249791,440.8812006249791,440.8812006249791,440.88622504100204,441.88105737499427,441.88105737499427,442.18743820796954,z,1,0.30098599899793044,None,,,,,2,001,2025-10-01_11h03.31.332, Motor Sequence Learning,,2025.1.1,None,2025-10-01 11h03.38.396007 +0530,
-50,x,188,0,47,x,1,0.4704208329785615,None,47,0,188,0,,,,,442.1970482079778,,442.1880689159734,442.1970482079778,443.18659083300736,443.18659083300736,443.18659083300736,443.18659083300736,443.18659083300736,444.1875931660179,444.1875931660179,444.6663663329673,x,1,0.4704208329785615,None,,,,,2,001,2025-10-01_11h03.31.332, Motor Sequence Learning,,2025.1.1,None,2025-10-01 11h03.38.396007 +0530,
150,v,189,1,47,v,1,0.39442379103275016,None,47,1,189,1,,,,,444.6760465829866,,444.6669259159826,444.6760465829866,445.66442108299816,445.66442108299816,445.66442108299816,445.66442108299816,445.66920875001233,446.6645060409792,446.6645060409792,447.0664328329731,v,1,0.39442379103275016,None,,,,,2,001,2025-10-01_11h03.31.332, Motor Sequence Learning,,2025.1.1,None,2025-10-01 11h03.38.396007 +0530,
50,c,190,2,47,z,0,0.4495185409905389,None,47,2,190,2,,,,,447.0761252079974,,447.06698254100047,447.0761252079974,448.06447216600645,448.06447216600645,448.06447216600645,448.06447216600645,448.0696850409731,449.06436016596854,449.06436016596854,449.5167101660045,z,0,0.4495185409905389,None,,,,,2,001,2025-10-01_11h03.31.332, Motor Sequence Learning,,2025.1.1,None,2025-10-01 11h03.38.396007 +0530,
-150,z,191,3,47,z,1,0.563466708001215,None,47,3,191,3,,,,,449.5269380409736,,449.5173592499923,449.5269380409736,450.5145234160009,450.5145234160009,450.5145234160009,450.5145234160009,450.5191617080127,451.51441733300453,451.51441733300453,452.08296979102306,z,1,0.563466708001215,None,,,,,2,001,2025-10-01_11h03.31.332, Motor Sequence Learning,,2025.1.1,None,2025-10-01 11h03.38.396007 +0530,
-50,x,192,0,48,x,1,0.43264862400246784,None,48,0,192,0,,,,,452.09284883301007,,452.08353616599925,452.09284883301007,453.08115570800146,453.08115570800146,453.08115570800146,453.08115570800146,453.0858321660198,454.0810636659735,454.0810636659735,454.51622204098385,x,1,0.43264862400246784,None,,,,,2,001,2025-10-01_11h03.31.332, Motor Sequence Learning,,2025.1.1,None,2025-10-01 11h03.38.396007 +0530,
150,v,193,1,48,v,1,0.2963501660269685,None,48,1,193,1,,,,,454.52607587497914,,454.51676512497943,454.52607587497914,455.5144312499906,455.5144312499906,455.5144312499906,455.5144312499906,455.5198770830175,456.5144733749912,456.5144733749912,456.81635874998756,v,1,0.2963501660269685,None,,,,,2,001,2025-10-01_11h03.31.332, Motor Sequence Learning,,2025.1.1,None,2025-10-01 11h03.38.396007 +0530,
50,c,194,2,48,c,1,0.45219704101327807,None,48,2,194,2,,,,,456.82617133297026,,456.81691908300854,456.82617133297026,457.8145224159816,457.8145224159816,457.8145224159816,457.8145224159816,457.8190954159945,458.8144432909903,458.8144432909903,459.27111999999033,c,1,0.45219704101327807,None,,,,,2,001,2025-10-01_11h03.31.332, Motor Sequence Learning,,2025.1.1,None,2025-10-01 11h03.38.396007 +0530,
-150,z,195,3,48,z,1,0.33525008300784975,None,48,3,195,3,,,,,459.28093233297113,,459.27166491601383,459.28093233297113,460.27077175001614,460.27077175001614,460.27077175001614,460.27077175001614,460.27077175001614,461.27035804098705,461.27035804098705,461.6163925830042,z,1,0.33525008300784975,None,,,,,2,001,2025-10-01_11h03.31.332, Motor Sequence Learning,,2025.1.1,None,2025-10-01 11h03.38.396007 +0530,
-50,x,196,0,49,x,1,0.5021197079913691,None,49,0,196,0,,,,,461.62673224997707,,461.61715966596967,461.62673224997707,462.61439312499715,462.61439312499715,462.61439312499715,462.61439312499715,462.6196062499657,463.6144387499662,463.6144387499662,464.1207640829962,x,1,0.5021197079913691,None,,,,,2,001,2025-10-01_11h03.31.332, Motor Sequence Learning,,2025.1.1,None,2025-10-01 11h03.38.396007 +0530,
150,v,197,1,49,v,1,0.40723874897230417,None,49,1,197,1,,,,,464.1303793750121,,464.1213055829867,464.1303793750121,465.11894533300074,465.11894533300074,465.11894533300074,465.11894533300074,465.11894533300074,466.12026724999305,466.12026724999305,466.5329591250047,v,1,0.40723874897230417,None,,,,,2,001,2025-10-01_11h03.31.332, Motor Sequence Learning,,2025.1.1,None,2025-10-01 11h03.38.396007 +0530,
50,c,198,2,49,c,1,0.3285279159899801,None,49,2,198,2,,,,,466.5428317079786,,466.5335151249892,466.5428317079786,467.5311584160081,467.5311584160081,467.5311584160081,467.5311584160081,467.53661883302266,468.53102066600695,468.53102066600695,468.86641058296664,c,1,0.3285279159899801,None,,,,,2,001,2025-10-01_11h03.31.332, Motor Sequence Learning,,2025.1.1,None,2025-10-01 11h03.38.396007 +0530,
-150,z,199,3,49,z,1,0.28984137502266094,None,49,3,199,3,,,,,468.87598445801996,,468.8669670409872,468.87598445801996,469.86474620801164,469.86474620801164,469.86474620801164,469.86474620801164,469.87040170800174,470.8644212909858,470.8644212909858,471.1665317079751,z,1,0.28984137502266094,None,,,,,2,001,2025-10-01_11h03.31.332, Motor Sequence Learning,,2025.1.1,None,2025-10-01 11h03.38.396007 +0530,
150,v,0,0,0,v,1,0.44308287400053814,None,,,,,0,0,0,1,471.185431291,,471.17882233299315,471.185431291,472.1644540000125,472.1644540000125,472.1644540000125,472.1644540000125,472.1810311250156,473.16425445798086,473.16425445798086,473.6163100830163,,,,,v,1,0.44308287400053814,None,2,001,2025-10-01_11h03.31.332, Motor Sequence Learning,,2025.1.1,None,2025-10-01 11h03.38.396007 +0530,
-50,x,1,1,0,x,1,0.5408022069605067,None,,,,,0,1,1,0,473.62508120801067,,473.61688483296894,473.62508120801067,474.6142923749867,474.6142923749867,474.6142923749867,474.6142923749867,474.6187945000129,475.61439104098827,475.61439104098827,476.1664696250227,,,,,x,1,0.5408022069605067,None,2,001,2025-10-01_11h03.31.332, Motor Sequence Learning,,2025.1.1,None,2025-10-01 11h03.38.396007 +0530,
-150,z,2,2,0,z,1,0.4478761659702286,None,,,,,0,2,2,3,476.17501504102256,,476.16704070800915,476.17501504102256,477.16446870798245,477.16446870798245,477.16446870798245,477.16446870798245,477.1697172910208,478.16436900000554,478.16436900000554,478.6164010000066,,,,,z,1,0.4478761659702286,None,2,001,2025-10-01_11h03.31.332, Motor Sequence Learning,,2025.1.1,None,2025-10-01 11h03.38.396007 +0530,
150,v,3,3,1,v,1,0.2278985820012167,None,,,,,1,3,3,1,478.625359416008,,478.61693516600644,478.625359416008,479.6143664160045,479.6143664160045,479.6143664160045,479.6143664160045,479.6198398330016,480.6144285830087,480.6144285830087,480.84953258297173,,,,,v,1,0.2278985820012167,None,2,001,2025-10-01_11h03.31.332, Motor Sequence Learning,,2025.1.1,None,2025-10-01 11h03.38.396007 +0530,
-50,x,4,4,1,x,1,0.3833633330068551,None,,,,,1,4,4,0,480.85768750001444,,480.8500629159971,480.85768750001444,481.8476188330096,481.8476188330096,481.8476188330096,481.8476188330096,481.8522447500145,482.84768566599814,482.84768566599814,483.23308441601694,,,,,x,1,0.3833633330068551,None,2,001,2025-10-01_11h03.31.332, Motor Sequence Learning,,2025.1.1,None,2025-10-01 11h03.38.396007 +0530,
150,v,5,5,2,v,1,0.35929079103516415,None,,,,,2,5,5,1,483.2417504999903,,483.2336594579974,483.2417504999903,484.23103675001767,484.23103675001767,484.23103675001767,484.23103675001767,484.23639287496917,485.2308525409899,485.2308525409899,485.599687082984,,,,,v,1,0.35929079103516415,None,2,001,2025-10-01_11h03.31.332, Motor Sequence Learning,,2025.1.1,None,2025-10-01 11h03.38.396007 +0530,
-150,z,6,6,1,z,1,0.22832674899837002,None,,,,,1,6,6,3,485.60854904097505,,485.6003963329713,485.60854904097505,486.59753283299506,486.59753283299506,486.59753283299506,486.59753283299506,486.6019154160167,487.59777470800327,487.59777470800327,487.8333733329782,,,,,z,1,0.22832674899837002,None,2,001,2025-10-01_11h03.31.332, Motor Sequence Learning,,2025.1.1,None,2025-10-01 11h03.38.396007 +0530,
150,v,7,7,3,v,1,0.288086790998932,None,,,,,3,7,7,1,487.8418406660203,,487.8339070829679,487.8418406660203,488.83099345798837,488.83099345798837,488.83099345798837,488.83099345798837,488.8360043329885,489.8309695000062,489.8309695000062,490.120771625021,,,,,v,1,0.288086790998932,None,2,001,2025-10-01_11h03.31.332, Motor Sequence Learning,,2025.1.1,None,2025-10-01 11h03.38.396007 +0530,
-50,x,8,8,2,x,1,0.31930083298357204,None,,,,,2,8,8,0,490.13018375000684,,490.1213206659886,490.13018375000684,491.1213762909756,491.1213762909756,491.1213762909756,491.1213762909756,491.1213762909756,492.11969466600567,492.11969466600567,492.44962904101703,,,,,x,1,0.31930083298357204,None,2,001,2025-10-01_11h03.31.332, Motor Sequence Learning,,2025.1.1,None,2025-10-01 11h03.38.396007 +0530,
50,c,9,9,0,c,1,0.2284064160194248,None,,,,,0,9,9,2,492.45822874997975,,492.45020675001433,492.45822874997975,493.44771929096896,493.44771929096896,493.44771929096896,493.44771929096896,493.4531453750096,494.4475909579778,494.4475909579778,494.6834984580055,,,,,c,1,0.2284064160194248,None,2,001,2025-10-01_11h03.31.332, Motor Sequence Learning,,2025.1.1,None,2025-10-01 11h03.38.396007 +0530,
-150,z,10,10,2,z,1,0.2637849579914473,None,,,,,2,10,10,3,494.692143207998,,494.68412375001935,494.692143207998,495.6811020830064,495.6811020830064,495.6811020830064,495.6811020830064,495.6868414999917,496.68103741598316,496.68103741598316,496.94963266601553,,,,,z,1,0.2637849579914473,None,2,001,2025-10-01_11h03.31.332, Motor Sequence Learning,,2025.1.1,None,2025-10-01 11h03.38.396007 +0530,
-50,x,11,11,3,x,1,0.44530033197952434,None,,,,,3,11,11,0,496.9583647499676,,496.9503216249868,496.9583647499676,497.94767254102044,497.94767254102044,497.94767254102044,497.94767254102044,497.95412879099604,498.94762204098515,498.94762204098515,499.3994834580226,,,,,x,1,0.44530033197952434,None,2,001,2025-10-01_11h03.31.332, Motor Sequence Learning,,2025.1.1,None,2025-10-01 11h03.38.396007 +0530,
-150,z,12,12,3,z,1,0.6501186660025269,None,,,,,3,12,12,3,499.4080222499906,,499.40002362499945,499.4080222499906,500.397674250009,500.397674250009,500.397674250009,500.397674250009,500.40247091598576,501.3975929580047,501.3975929580047,502.05013250000775,,,,,z,1,0.6501186660025269,None,2,001,2025-10-01_11h03.31.332, Motor Sequence Learning,,2025.1.1,None,2025-10-01 11h03.38.396007 +0530,
-50,x,13,13,4,x,1,0.3131244159885682,None,,,,,4,13,13,0,502.0611347499653,,502.0509311250062,502.0611347499653,503.04777699999977,503.04777699999977,503.04777699999977,503.04777699999977,503.05301362497266,504.04764733300544,504.04764733300544,504.366315207968,,,,,x,1,0.3131244159885682,None,2,001,2025-10-01_11h03.31.332, Motor Sequence Learning,,2025.1.1,None,2025-10-01 11h03.38.396007 +0530,
50,c,14,14,1,v,0,0.33924391597975045,None,,,,,1,14,14,2,504.37639120797394,,504.3670269579743,504.37639120797394,505.3643500409671,505.3643500409671,505.3643500409671,505.3643500409671,505.3697287499672,506.3643995409948,506.3643995409948,506.7163189579733,,,,,v,0,0.33924391597975045,None,2,001,2025-10-01_11h03.31.332, Motor Sequence Learning,,2025.1.1,None,2025-10-01 11h03.38.396007 +0530,
150,v,15,15,4,v,1,0.4352082909899764,None,,,,,4,15,15,1,506.726618457993,,506.7171164159663,506.726618457993,507.7142582499655,507.7142582499655,507.7142582499655,507.7142582499655,507.71947324997745,508.7143664159812,508.7143664159812,509.15526754100574,,,,,v,1,0.4352082909899764,None,2,001,2025-10-01_11h03.31.332, Motor Sequence Learning,,2025.1.1,None,2025-10-01 11h03.38.396007 +0530,
50,c,16,16,2,c,1,0.32880320702679455,None,,,,,2,16,16,2,509.1673487079679,,509.15584241598845,509.1673487079679,510.15368970797863,510.15368970797863,510.15368970797863,510.15368970797863,510.16445008298615,511.153771125013,511.153771125013,511.48762604099466,,,,,c,1,0.32880320702679455,None,2,001,2025-10-01_11h03.31.332, Motor Sequence Learning,,2025.1.1,None,2025-10-01 11h03.38.396007 +0530,
-50,x,17,17,5,c,0,0.4941981249721721,None,,,,,5,17,17,0,511.49668258300517,,511.48818391602254,511.49668258300517,512.486107625009,512.486107625009,512.486107625009,512.486107625009,512.486107625009,513.4862267500139,513.4862267500139,513.9832393749966,,,,,c,0,0.4941981249721721,None,2,001,2025-10-01_11h03.31.332, Motor Sequence Learning,,2025.1.1,None,2025-10-01 11h03.38.396007 +0530,
-50,x,18,18,6,x,1,0.48949524899944663,None,,,,,6,18,18,0,513.9929720410146,,513.9839375829906,513.9929720410146,514.9810232080054,514.9810232080054,514.9810232080054,514.9810232080054,514.9862671250012,515.9809280000045,515.9809280000045,516.4830294160056,,,,,x,1,0.48949524899944663,None,2,001,2025-10-01_11h03.31.332, Motor Sequence Learning,,2025.1.1,None,2025-10-01 11h03.38.396007 +0530,
-50,x,19,19,7,x,1,0.5685005830018781,None,,,,,7,19,19,0,516.4926899580169,,516.4838006250211,516.4926899580169,517.4809966249741,517.4809966249741,517.4809966249741,517.4809966249741,517.4864349159761,518.4808755000122,518.4808755000122,519.0552067499957,,,,,x,1,0.5685005830018781,None,2,001,2025-10-01_11h03.31.332, Motor Sequence Learning,,2025.1.1,None,2025-10-01 11h03.38.396007 +0530,
-50,x,20,20,8,x,1,0.33431479102000594,None,,,,,8,20,20,0,519.06437120802,,519.0558130830177,519.06437120802,520.0524235829944,520.0524235829944,520.0524235829944,520.0524235829944,520.0524235829944,521.0540474160225,521.0540474160225,521.3994041659753,,,,,x,1,0.33431479102000594,None,2,001,2025-10-01_11h03.31.332, Motor Sequence Learning,,2025.1.1,None,2025-10-01 11h03.38.396007 +0530,
-50,x,21,21,9,x,1,0.4217060829978436,None,,,,,9,21,21,0,521.4090110000107,,521.4000652909745,521.4090110000107,522.3974796250113,522.3974796250113,522.3974796250113,522.3974796250113,522.4019180830219,523.397632999986,523.397632999986,523.8209707909846,,,,,x,1,0.4217060829978436,None,2,001,2025-10-01_11h03.31.332, Motor Sequence Learning,,2025.1.1,None,2025-10-01 11h03.38.396007 +0530,
-50,x,22,22,10,x,1,0.3852822909830138,None,,,,,10,22,22,0,523.8302146659698,,523.8215070830192,523.8302146659698,524.8209757499862,524.8209757499862,524.8209757499862,524.8209757499862,524.8209757499862,525.819966458017,525.819966458017,526.2162442500121,,,,,x,1,0.3852822909830138,None,2,001,2025-10-01_11h03.31.332, Motor Sequence Learning,,2025.1.1,None,2025-10-01 11h03.38.396007 +0530,
-50,x,23,23,11,x,1,0.35188437398755923,None,,,,,11,23,23,0,526.2256782909972,,526.2168300409685,526.2256782909972,527.2142616250203,527.2142616250203,527.2142616250203,527.2142616250203,527.2188239580137,528.2142842080211,528.2142842080211,528.5713505409658,,,,,x,1,0.35188437398755923,None,2,001,2025-10-01_11h03.31.332, Motor Sequence Learning,,2025.1.1,None,2025-10-01 11h03.38.396007 +0530,
-150,z,24,24,4,z,1,0.40468041598796844,None,,,,,4,24,24,3,528.5802297079936,,528.5719130409998,528.5802297079936,529.5702824160107,529.5702824160107,529.5702824160107,529.5702824160107,529.5702824160107,530.5703876659973,530.5703876659973,530.9830055409693,,,,,z,1,0.40468041598796844,None,2,001,2025-10-01_11h03.31.332, Motor Sequence Learning,,2025.1.1,None,2025-10-01 11h03.38.396007 +0530,
-50,x,25,25,12,x,1,0.3381757910246961,None,,,,,12,25,25,0,530.9927135409671,,530.9838851660024,530.9927135409671,531.9810107079684,531.9810107079684,531.9810107079684,531.9810107079684,531.9862598329782,532.9809060409898,532.9809060409898,533.3210867909947,,,,,x,1,0.3381757910246961,None,2,001,2025-10-01_11h03.31.332, Motor Sequence Learning,,2025.1.1,None,2025-10-01 11h03.38.396007 +0530,
-150,z,26,26,5,z,1,0.4738750829710625,None,,,,,5,26,26,3,533.3303176250192,,533.3216251659906,533.3303176250192,534.3193820830202,534.3193820830202,534.3193820830202,534.3193820830202,534.3193820830202,535.3201780829695,535.3201780829695,535.7999678329797,,,,,z,1,0.4738750829710625,None,2,001,2025-10-01_11h03.31.332, Motor Sequence Learning,,2025.1.1,None,2025-10-01 11h03.38.396007 +0530,
-50,x,27,27,13,x,1,0.35947133298031986,None,,,,,13,27,27,0,535.8091798750102,,535.8005750000011,535.8091798750102,536.797531749995,536.797531749995,536.797531749995,536.797531749995,536.8030847500195,537.7975602910155,537.7975602910155,538.1662686250056,,,,,x,1,0.35947133298031986,None,2,001,2025-10-01_11h03.31.332, Motor Sequence Learning,,2025.1.1,None,2025-10-01 11h03.38.396007 +0530,
50,c,28,28,3,c,1,0.4347611659904942,None,,,,,3,28,28,2,538.1752941660234,,538.166847540997,538.1752941660234,539.1642797499662,539.1642797499662,539.1642797499662,539.1642797499662,539.1695127499988,540.1641841249657,540.1641841249657,540.6047113329987,,,,,c,1,0.4347611659904942,None,2,001,2025-10-01_11h03.31.332, Motor Sequence Learning,,2025.1.1,None,2025-10-01 11h03.38.396007 +0530,
-150,z,29,29,6,z,1,0.38879866601200774,None,,,,,6,29,29,3,540.6135484579718,,540.6053321660147,540.6135484579718,541.6025309580145,541.6025309580145,541.6025309580145,541.6025309580145,541.6025309580145,542.604182665993,542.604182665993,542.9995859580231,,,,,z,1,0.38879866601200774,None,2,001,2025-10-01_11h03.31.332, Motor Sequence Learning,,2025.1.1,None,2025-10-01 11h03.38.396007 +0530,
-50,x,30,30,14,x,1,0.434218582988251,None,,,,,14,30,30,0,543.0090090829763,,543.0003257080098,543.0090090829763,543.99779962498,543.99779962498,543.99779962498,543.99779962498,544.0043484999915,544.9976407500217,544.9976407500217,545.4375762079726,,,,,x,1,0.434218582988251,None,2,001,2025-10-01_11h03.31.332, Motor Sequence Learning,,2025.1.1,None,2025-10-01 11h03.38.396007 +0530,
50,c,31,31,4,c,1,0.38899466599104926,None,,,,,4,31,31,2,545.4467852499802,,545.4381674159667,545.4467852499802,546.436496875016,546.436496875016,546.436496875016,546.436496875016,546.436496875016,547.4368336659973,547.4368336659973,547.8328534159809,,,,,c,1,0.38899466599104926,None,2,001,2025-10-01_11h03.31.332, Motor Sequence Learning,,2025.1.1,None,2025-10-01 11h03.38.396007 +0530,
150,v,32,32,5,v,1,0.2937735409941524,None,,,,,5,32,32,1,547.8416356249945,,547.8333662910154,547.8416356249945,548.8308354580076,548.8308354580076,548.8308354580076,548.8308354580076,548.8360741250217,549.830901874986,549.830901874986,550.1328182080179,,,,,v,1,0.2937735409941524,None,2,001,2025-10-01_11h03.31.332, Motor Sequence Learning,,2025.1.1,None,2025-10-01 11h03.38.396007 +0530,
-50,x,33,33,15,x,1,0.6788212910178117,None,,,,,15,33,33,0,550.1421850409824,,550.1336453330005,550.1421850409824,551.1309564160183,551.1309564160183,551.1309564160183,551.1309564160183,551.1363818749669,552.1308810409973,552.1308810409973,552.8161896250094,,,,,x,1,0.6788212910178117,None,2,001,2025-10-01_11h03.31.332, Motor Sequence Learning,,2025.1.1,None,2025-10-01 11h03.38.396007 +0530,
50,c,34,34,5,c,1,0.6093244989751838,None,,,,,5,34,34,2,552.8250359160011,,552.8167524579912,552.8250359160011,553.8142395410105,553.8142395410105,553.8142395410105,553.8142395410105,553.8198394579813,554.8141806250205,554.8141806250205,555.4328206250211,,,,,c,1,0.6093244989751838,None,2,001,2025-10-01_11h03.31.332, Motor Sequence Learning,,2025.1.1,None,2025-10-01 11h03.38.396007 +0530,
-50,x,35,35,16,x,1,0.511663583049085,None,,,,,16,35,35,0,555.44197312498,,555.433395333006,555.44197312498,556.4306947080186,556.4306947080186,556.4306947080186,556.4306947080186,556.4359135829727,557.4308403329924,557.4308403329924,557.9497613330022,,,,,x,1,0.511663583049085,None,2,001,2025-10-01_11h03.31.332, Motor Sequence Learning,,2025.1.1,None,2025-10-01 11h03.38.396007 +0530,
-50,x,36,36,17,x,1,0.45988733303966,None,,,,,17,36,36,0,557.9591605410096,,557.9506236659945,557.9591605410096,558.9474833330023,558.9474833330023,558.9474833330023,558.9474833330023,558.9529719579732,559.9476060830057,559.9476060830057,560.4162259579753,,,,,x,1,0.45988733303966,None,2,001,2025-10-01_11h03.31.332, Motor Sequence Learning,,2025.1.1,None,2025-10-01 11h03.38.396007 +0530,
150,v,37,37,6,v,1,0.4990391659666784,None,,,,,6,37,37,1,560.4256790410145,,560.417009332974,560.4256790410145,561.414043124998,561.414043124998,561.414043124998,561.414043124998,561.4193990000058,562.4143808750086,562.4143808750086,562.9162813330186,,,,,v,1,0.4990391659666784,None,2,001,2025-10-01_11h03.31.332, Motor Sequence Learning,,2025.1.1,None,2025-10-01 11h03.38.396007 +0530,
-50,x,38,38,18,x,1,0.5021646660170518,None,,,,,18,38,38,0,562.9262765409658,,562.916871415975,562.9262765409658,563.9141694999998,563.9141694999998,563.9141694999998,563.9141694999998,563.9184879999957,564.9142584159854,564.9142584159854,565.4217952910112,,,,,x,1,0.5021646660170518,None,2,001,2025-10-01_11h03.31.332, Motor Sequence Learning,,2025.1.1,None,2025-10-01 11h03.38.396007 +0530,
50,c,39,39,6,c,1,0.4162092909682542,None,,,,,6,39,39,2,565.4478193749674,,565.4223684580065,565.4478193749674,566.4215509580099,566.4215509580099,566.4215509580099,566.4215509580099,566.43478654098,567.4200942909811,567.4200942909811,567.8495509579661,,,,,c,1,0.4162092909682542,None,2,001,2025-10-01_11h03.31.332, Motor Sequence Learning,,2025.1.1,None,2025-10-01 11h03.38.396007 +0530,
50,c,40,40,7,c,1,0.3790214990149252,None,,,,,7,40,40,2,567.8594264999847,,567.8501475409721,567.8594264999847,568.8478019160102,568.8478019160102,568.8478019160102,568.8478019160102,568.854565458023,569.8476263330085,569.8476263330085,570.2330127080204,,,,,c,1,0.3790214990149252,None,2,001,2025-10-01_11h03.31.332, Motor Sequence Learning,,2025.1.1,None,2025-10-01 11h03.38.396007 +0530,
-150,z,41,41,7,z,1,0.4654390409705229,None,,,,,7,41,41,3,570.2428090830217,,570.2336171250208,570.2428090830217,571.2309460410033,571.2309460410033,571.2309460410033,571.2309460410033,571.236355083005,572.2308231249917,572.2308231249917,572.6995664999704,,,,,z,1,0.4654390409705229,None,2,001,2025-10-01_11h03.31.332, Motor Sequence Learning,,2025.1.1,None,2025-10-01 11h03.38.396007 +0530,
-50,x,42,42,19,x,1,0.45043433300452307,None,,,,,19,42,42,0,572.7090932080173,,572.7001584999962,572.7090932080173,573.697466875019,573.697466875019,573.697466875019,573.697466875019,573.7028664579848,574.6977947499836,574.6977947499836,575.1539296249975,,,,,x,1,0.45043433300452307,None,2,001,2025-10-01_11h03.31.332, Motor Sequence Learning,,2025.1.1,None,2025-10-01 11h03.38.396007 +0530,
150,v,43,43,7,v,1,0.3092566659906879,None,,,,,7,43,43,1,575.1635959579726,,575.1545797910076,575.1635959579726,576.1549759579939,576.1549759579939,576.1549759579939,576.1549759579939,576.1549759579939,577.1528336249758,577.1528336249758,577.4662607079954,,,,,v,1,0.3092566659906879,None,2,001,2025-10-01_11h03.31.332, Motor Sequence Learning,,2025.1.1,None,2025-10-01 11h03.38.396007 +0530,
50,c,44,44,8,c,1,0.3599164580227807,None,,,,,8,44,44,2,577.4751818329678,,577.4667758750147,577.4751818329678,578.4642337079858,578.4642337079858,578.4642337079858,578.4642337079858,578.4687062500161,579.464127083018,579.464127083018,579.8328788329964,,,,,c,1,0.3599164580227807,None,2,001,2025-10-01_11h03.31.332, Motor Sequence Learning,,2025.1.1,None,2025-10-01 11h03.38.396007 +0530,
150,v,45,45,8,v,1,0.5870984159992076,None,,,,,8,45,45,1,579.8416548329988,,579.8334676660015,579.8416548329988,580.8308334579924,580.8308334579924,580.8308334579924,580.8308334579924,580.8356104579871,581.8309333329671,581.8309333329671,582.4217743329937,,,,,v,1,0.5870984159992076,None,2,001,2025-10-01_11h03.31.332, Motor Sequence Learning,,2025.1.1,None,2025-10-01 11h03.38.396007 +0530,
50,c,46,46,9,c,1,0.4661484580137767,None,,,,,9,46,46,2,582.4478254580172,,582.4223483329988,582.4478254580172,583.4201167499996,583.4201167499996,583.4201167499996,583.4201167499996,583.4351507080137,584.4198523329687,584.4198523329687,584.8879753749934,,,,,c,1,0.4661484580137767,None,2,001,2025-10-01_11h03.31.332, Motor Sequence Learning,,2025.1.1,None,2025-10-01 11h03.38.396007 +0530,
-150,z,47,47,8,z,1,0.3387959580286406,None,,,,,8,47,47,3,584.8967468750197,,584.8885067079682,584.8967468750197,585.8852295000106,585.8852295000106,585.8852295000106,585.8852295000106,585.8852295000106,586.8860947909998,586.8860947909998,587.2329439999885,,,,,z,1,0.3387959580286406,None,2,001,2025-10-01_11h03.31.332, Motor Sequence Learning,,2025.1.1,None,2025-10-01 11h03.38.396007 +0530,
50,c,48,48,10,c,1,0.3480587070225738,None,,,,,10,48,48,2,587.2412489579874,,587.2335135000176,587.2412489579874,588.2307523330091,588.2307523330091,588.2307523330091,588.2307523330091,588.2361801660154,589.2308197079692,589.2308197079692,589.5828115830082,,,,,c,1,0.3480587070225738,None,2,001,2025-10-01_11h03.31.332, Motor Sequence Learning,,2025.1.1,None,2025-10-01 11h03.38.396007 +0530,
150,v,49,49,9,v,1,0.4890179999638349,None,,,,,9,49,49,1,589.5914352909895,,589.583369666012,589.5914352909895,590.5808902910212,590.5808902910212,590.5808902910212,590.5808902910212,590.5855636660126,591.5807922909735,591.5807922909735,592.0829187500058,,,,,v,1,0.4890179999638349,None,2,001,2025-10-01_11h03.31.332, Motor Sequence Learning,,2025.1.1,None,2025-10-01 11h03.38.396007 +0530,
