reward_today,future_reward,delay,thisN,thisTrialN,thisRepN,key_resp.keys,key_resp.rt,key_resp.duration,trials.thisRepN,trials.thisTrialN,trials.thisN,trials.thisIndex,thisRow.t,notes,trial.started,fixation.started,text.started,key_resp.started,fixation.stopped,trial.stopped,trials.key_resp.keys,trials.key_resp.rt,trials.key_resp.duration,participant,session,date,expName,expVersion,psychopyVersion,frameRate,expStart,
9.0,18.0,12.0,0,0,0,l,6.686588041018695,None,0,0,0,8,0.03420116699999198,,0.03096883400576189,0.03420116699999198,0.9956559590063989,0.9956559590063989,1.0296914589998778,7.867453750019195,l,6.686588041018695,None,2,001,2025-10-30_09h38.50.877,Tutorial 6 | Delay Discounting Task,,2025.1.1,None,2025-10-30 09h39.01.081756 +0530,
78.0,80.0,162.0,1,1,0,t,2.401913957000943,None,0,1,1,6,7.885727417015005,,7.87000158400042,7.885727417015005,8.865123042021878,8.865123042021878,8.880990875011776,11.278709167003399,t,2.401913957000943,None,2,001,2025-10-30_09h38.50.877,Tutorial 6 | Delay Discounting Task,,2025.1.1,None,2025-10-30 09h39.01.081756 +0530,
49.0,60.0,89.0,2,2,0,t,2.853127248992678,None,0,2,2,4,11.294915917009348,,11.287941459013382,11.294915917009348,12.276851667003939,12.276851667003939,12.29347833400243,15.132031042012386,t,2.853127248992678,None,2,001,2025-10-30_09h38.50.877,Tutorial 6 | Delay Discounting Task,,2025.1.1,None,2025-10-30 09h39.01.081756 +0530,
15.0,35.0,13.0,3,3,0,l,1.1638789160060696,None,0,3,3,1,15.156982292013709,,15.141808375017717,15.156982292013709,16.132984292024048,16.132984292024048,16.14697829200304,17.298290250007994,l,1.1638789160060696,None,2,001,2025-10-30_09h38.50.877,Tutorial 6 | Delay Discounting Task,,2025.1.1,None,2025-10-30 09h39.01.081756 +0530,
90.0,101.0,190.0,4,4,0,t,1.4939644580008462,None,0,4,4,7,17.326911750016734,,17.30476991701289,17.326911750016734,18.297958542010747,18.297958542010747,18.314370875013992,19.795146625023335,t,1.4939644580008462,None,2,001,2025-10-30_09h38.50.877,Tutorial 6 | Delay Discounting Task,,2025.1.1,None,2025-10-30 09h39.01.081756 +0530,
40.0,55.0,62.0,5,5,0,t,2.7258384579909034,None,0,5,5,3,19.80897979202564,,19.801955000002636,19.80897979202564,20.793394000007538,20.793394000007538,20.79767420902499,23.529002292023506,t,2.7258384579909034,None,2,001,2025-10-30_09h38.50.877,Tutorial 6 | Delay Discounting Task,,2025.1.1,None,2025-10-30 09h39.01.081756 +0530,
50.0,69.0,49.0,6,6,0,l,1.0191435409942642,None,0,6,6,9,23.541482708998956,,23.536472417006735,23.541482708998956,24.52660295899841,24.52660295899841,24.530333500006236,25.54832712499774,l,1.0191435409942642,None,2,001,2025-10-30_09h38.50.877,Tutorial 6 | Delay Discounting Task,,2025.1.1,None,2025-10-30 09h39.01.081756 +0530,
11.0,30.0,7.0,7,7,0,l,1.301631707989145,None,0,7,7,0,25.56262558401795,,25.55510720901657,25.56262558401795,26.547973167005694,26.547973167005694,26.56005420902511,27.861961084010545,l,1.301631707989145,None,2,001,2025-10-30_09h38.50.877,Tutorial 6 | Delay Discounting Task,,2025.1.1,None,2025-10-30 09h39.01.081756 +0530,
67.0,75.0,119.0,8,8,0,t,2.508601456996985,None,0,8,8,5,27.87601745899883,,27.86874720902415,27.87601745899883,28.8601677090046,28.8601677090046,28.864490500011016,31.378382625000086,t,2.508601456996985,None,2,001,2025-10-30_09h38.50.877,Tutorial 6 | Delay Discounting Task,,2025.1.1,None,2025-10-30 09h39.01.081756 +0530,
27.0,50.0,21.0,9,9,0,l,1.0977705830009654,None,0,9,9,2,31.39244675001828,,31.385182709025685,31.39244675001828,32.376862250006525,32.376862250006525,32.380763250024756,33.478497834003065,l,1.0977705830009654,None,2,001,2025-10-30_09h38.50.877,Tutorial 6 | Delay Discounting Task,,2025.1.1,None,2025-10-30 09h39.01.081756 +0530,
90.0,101.0,190.0,10,0,1,t,1.600781999004539,None,1,0,10,7,33.49259287500172,,33.485334084019996,33.49259287500172,34.47673225001199,34.47673225001199,34.480402084009256,36.08160470900475,t,1.600781999004539,None,2,001,2025-10-30_09h38.50.877,Tutorial 6 | Delay Discounting Task,,2025.1.1,None,2025-10-30 09h39.01.081756 +0530,
27.0,50.0,21.0,11,1,1,l,1.2647298329975456,None,1,1,11,2,36.09327595902141,,36.0874124999973,36.09327595902141,37.076757917006034,37.076757917006034,37.08108212501975,38.34520208401955,l,1.2647298329975456,None,2,001,2025-10-30_09h38.50.877,Tutorial 6 | Delay Discounting Task,,2025.1.1,None,2025-10-30 09h39.01.081756 +0530,
15.0,35.0,13.0,12,2,1,l,2.833879290992627,None,1,2,12,1,38.35973675001878,,38.35278583402396,38.35973675001878,39.34342191700125,39.34342191700125,39.34685175001505,42.18178425001679,l,2.833879290992627,None,2,001,2025-10-30_09h38.50.877,Tutorial 6 | Delay Discounting Task,,2025.1.1,None,2025-10-30 09h39.01.081756 +0530,
50.0,69.0,49.0,13,3,1,t,1.429024874989409,None,1,3,13,9,42.196193375013536,,42.188089167000726,42.196193375013536,43.183233625022694,43.183233625022694,43.1932014170161,44.61469750001561,t,1.429024874989409,None,2,001,2025-10-30_09h38.50.877,Tutorial 6 | Delay Discounting Task,,2025.1.1,None,2025-10-30 09h39.01.081756 +0530,
67.0,75.0,119.0,14,4,1,t,1.488041583012091,None,1,4,14,5,44.6294397090096,,44.62083258401253,44.6294397090096,45.61021712500951,45.61021712500951,45.626866917009465,47.111498417012626,t,1.488041583012091,None,2,001,2025-10-30_09h38.50.877,Tutorial 6 | Delay Discounting Task,,2025.1.1,None,2025-10-30 09h39.01.081756 +0530,
40.0,55.0,62.0,15,5,1,t,1.4692106249858625,None,1,5,15,3,47.124927834025584,,47.11782595902332,47.124927834025584,48.1100180420035,48.1100180420035,48.113571125024464,49.58193683400168,t,1.4692106249858625,None,2,001,2025-10-30_09h38.50.877,Tutorial 6 | Delay Discounting Task,,2025.1.1,None,2025-10-30 09h39.01.081756 +0530,
49.0,60.0,89.0,16,6,1,l,1.2528831659874413,None,1,6,16,4,49.596100042021135,,49.58828625001479,49.596100042021135,50.58242045901716,50.58242045901716,50.593343542015646,51.84505754199927,l,1.2528831659874413,None,2,001,2025-10-30_09h38.50.877,Tutorial 6 | Delay Discounting Task,,2025.1.1,None,2025-10-30 09h39.01.081756 +0530,
11.0,30.0,7.0,17,7,1,l,1.234575706999749,None,1,7,17,0,51.85993008399964,,51.8529687920236,51.85993008399964,52.84348308399785,52.84348308399785,52.84861108401674,54.0816524590191,l,1.234575706999749,None,2,001,2025-10-30_09h38.50.877,Tutorial 6 | Delay Discounting Task,,2025.1.1,None,2025-10-30 09h39.01.081756 +0530,
9.0,18.0,12.0,18,8,1,l,1.3465747490117792,None,1,8,18,8,54.09316775001935,,54.08726641701651,54.09316775001935,55.076670084003126,55.076670084003126,55.08096704201307,56.428381917008664,l,1.3465747490117792,None,2,001,2025-10-30_09h38.50.877,Tutorial 6 | Delay Discounting Task,,2025.1.1,None,2025-10-30 09h39.01.081756 +0530,
78.0,80.0,162.0,19,9,1,t,2.4074007909803186,None,1,9,19,6,56.441760292014806,,56.43509091701708,56.441760292014806,57.42666504200315,57.42666504200315,57.431143916997826,59.84560770902317,t,2.4074007909803186,None,2,001,2025-10-30_09h38.50.877,Tutorial 6 | Delay Discounting Task,,2025.1.1,None,2025-10-30 09h39.01.081756 +0530,
49.0,60.0,89.0,20,0,2,t,1.8496196659980342,None,2,0,20,4,59.85750570902019,,59.852745459007565,59.85750570902019,60.843382959021255,60.843382959021255,60.847275792009896,62.695309125003405,t,1.8496196659980342,None,2,001,2025-10-30_09h38.50.877,Tutorial 6 | Delay Discounting Task,,2025.1.1,None,2025-10-30 09h39.01.081756 +0530,
90.0,101.0,190.0,21,1,2,t,1.630469666008139,None,2,1,21,7,62.708623959013494,,62.701323709014105,62.708623959013494,63.69347925001057,63.69347925001057,63.69785391702317,65.32890629200847,t,1.630469666008139,None,2,001,2025-10-30_09h38.50.877,Tutorial 6 | Delay Discounting Task,,2025.1.1,None,2025-10-30 09h39.01.081756 +0530,
78.0,80.0,162.0,22,2,2,t,1.9771924579981714,None,2,2,22,6,65.34599879200687,,65.33733704200131,65.34599879200687,66.32676320901373,66.32676320901373,66.34338250002475,68.31186879202141,t,1.9771924579981714,None,2,001,2025-10-30_09h38.50.877,Tutorial 6 | Delay Discounting Task,,2025.1.1,None,2025-10-30 09h39.01.081756 +0530,
50.0,69.0,49.0,23,3,2,l,2.8076707079890184,None,2,3,23,9,68.32699416700052,,68.31879800002207,68.32699416700052,69.31002670901944,69.31002670901944,69.3142559590051,72.12739870900987,l,2.8076707079890184,None,2,001,2025-10-30_09h38.50.877,Tutorial 6 | Delay Discounting Task,,2025.1.1,None,2025-10-30 09h39.01.081756 +0530,
15.0,35.0,13.0,24,4,2,l,2.1620094569807407,None,2,4,24,1,72.1392977090145,,72.13319545899867,72.1392977090145,73.11561833400629,73.11561833400629,73.13068416700116,75.28127125001629,l,2.1620094569807407,None,2,001,2025-10-30_09h38.50.877,Tutorial 6 | Delay Discounting Task,,2025.1.1,None,2025-10-30 09h39.01.081756 +0530,
40.0,55.0,62.0,25,5,2,l,1.4677219989825971,None,2,5,25,3,75.30959770901245,,75.28718708400265,75.30959770901245,76.2769251250138,76.2769251250138,76.296739042009,77.74941487499746,l,1.4677219989825971,None,2,001,2025-10-30_09h38.50.877,Tutorial 6 | Delay Discounting Task,,2025.1.1,None,2025-10-30 09h39.01.081756 +0530,
11.0,30.0,7.0,26,6,2,l,1.0660880409996025,None,2,6,26,0,77.76337841700297,,77.75592466699891,77.76337841700297,78.74850025001797,78.74850025001797,78.75995637499727,79.8291480000189,l,1.0660880409996025,None,2,001,2025-10-30_09h38.50.877,Tutorial 6 | Delay Discounting Task,,2025.1.1,None,2025-10-30 09h39.01.081756 +0530,
9.0,18.0,12.0,27,7,2,l,2.18191379099153,None,2,7,27,8,79.84214670900838,,79.83678987500025,79.84214670900838,80.82663954200689,80.82663954200689,80.83037320899894,83.01151425001444,l,2.18191379099153,None,2,001,2025-10-30_09h38.50.877,Tutorial 6 | Delay Discounting Task,,2025.1.1,None,2025-10-30 09h39.01.081756 +0530,
67.0,75.0,119.0,28,8,2,t,3.847750457993243,None,2,8,28,5,83.02482795901597,,83.01793066700338,83.02482795901597,84.01013791700825,84.01013791700825,84.01451475001522,87.86151262500789,t,3.847750457993243,None,2,001,2025-10-30_09h38.50.877,Tutorial 6 | Delay Discounting Task,,2025.1.1,None,2025-10-30 09h39.01.081756 +0530,
27.0,50.0,21.0,29,9,2,l,2.5456880829879083,None,2,9,29,2,87.87489666702459,,87.86793787500937,87.87489666702459,88.86005487502553,88.86005487502553,88.86385600001086,91.41200075001689,l,2.5456880829879083,None,2,001,2025-10-30_09h38.50.877,Tutorial 6 | Delay Discounting Task,,2025.1.1,None,2025-10-30 09h39.01.081756 +0530,
40.0,55.0,62.0,30,0,3,l,3.253391706995899,None,3,0,30,3,91.42444625002099,,91.41848008401575,91.42444625002099,92.40990675002104,92.40990675002104,92.41336649999721,95.66476037501707,l,3.253391706995899,None,2,001,2025-10-30_09h38.50.877,Tutorial 6 | Delay Discounting Task,,2025.1.1,None,2025-10-30 09h39.01.081756 +0530,
78.0,80.0,162.0,31,1,3,t,2.174315625015879,None,3,1,31,6,95.67668458400294,,95.67081129201688,95.67668458400294,96.66491670900723,96.66491670900723,96.66491670900723,98.84539345902158,t,2.174315625015879,None,2,001,2025-10-30_09h38.50.877,Tutorial 6 | Delay Discounting Task,,2025.1.1,None,2025-10-30 09h39.01.081756 +0530,
27.0,50.0,21.0,32,2,3,l,2.9435186659975443,None,3,2,32,2,98.85759820899693,,98.8521883340145,98.85759820899693,99.84324779201415,99.84324779201415,99.84748591700918,102.79504200001247,l,2.9435186659975443,None,2,001,2025-10-30_09h38.50.877,Tutorial 6 | Delay Discounting Task,,2025.1.1,None,2025-10-30 09h39.01.081756 +0530,
90.0,101.0,190.0,33,3,3,t,1.1454403329989873,None,3,3,33,7,102.80869354199967,,102.8015892090043,102.80869354199967,103.79334008399746,103.79334008399746,103.79723470902536,104.94500554201659,t,1.1454403329989873,None,2,001,2025-10-30_09h38.50.877,Tutorial 6 | Delay Discounting Task,,2025.1.1,None,2025-10-30 09h39.01.081756 +0530,
11.0,30.0,7.0,34,4,3,l,1.62997195700882,None,3,4,34,0,104.95885562500916,,104.95170995901572,104.95885562500916,105.94358650001232,105.94358650001232,105.94808600001852,107.57837495900458,l,1.62997195700882,None,2,001,2025-10-30_09h38.50.877,Tutorial 6 | Delay Discounting Task,,2025.1.1,None,2025-10-30 09h39.01.081756 +0530,
49.0,60.0,89.0,35,5,3,t,2.7810048749961425,None,3,5,35,4,107.59182616701582,,107.58506158401724,107.59182616701582,108.57660337499692,108.57660337499692,108.58040062501095,111.36134000000311,t,2.7810048749961425,None,2,001,2025-10-30_09h38.50.877,Tutorial 6 | Delay Discounting Task,,2025.1.1,None,2025-10-30 09h39.01.081756 +0530,
15.0,35.0,13.0,36,6,3,l,1.0866263750067446,None,3,6,36,1,111.37478745900444,,111.36760433402378,111.37478745900444,112.35991975001525,112.35991975001525,112.36369508400094,113.4492762919981,l,1.0866263750067446,None,2,001,2025-10-30_09h38.50.877,Tutorial 6 | Delay Discounting Task,,2025.1.1,None,2025-10-30 09h39.01.081756 +0530,
50.0,69.0,49.0,37,7,3,t,1.7988342489989009,None,3,7,37,9,113.46298937502434,,113.45671091700206,113.46298937502434,114.4476175000018,114.4476175000018,114.4600293750118,116.24828741702368,t,1.7988342489989009,None,2,001,2025-10-30_09h38.50.877,Tutorial 6 | Delay Discounting Task,,2025.1.1,None,2025-10-30 09h39.01.081756 +0530,
9.0,18.0,12.0,38,8,3,l,1.3304834569862578,None,3,8,38,8,116.26255120901624,,116.25427104200935,116.26255120901624,117.24890862501343,117.24890862501343,117.25985833400046,118.58187424999778,l,1.3304834569862578,None,2,001,2025-10-30_09h38.50.877,Tutorial 6 | Delay Discounting Task,,2025.1.1,None,2025-10-30 09h39.01.081756 +0530,
67.0,75.0,119.0,39,9,3,l,1.9153587910113856,None,3,9,39,5,118.5962182090152,,118.58826150000095,118.5962182090152,119.58101270900806,119.58101270900806,119.59321266700863,121.49878041702323,l,1.9153587910113856,None,2,001,2025-10-30_09h38.50.877,Tutorial 6 | Delay Discounting Task,,2025.1.1,None,2025-10-30 09h39.01.081756 +0530,
40.0,55.0,62.0,40,0,4,l,5.901155873987591,None,4,0,40,3,121.51265912500094,,121.50506833402324,121.51265912500094,122.49316825001733,122.49316825001733,122.51001025000005,128.39845091701136,l,5.901155873987591,None,2,001,2025-10-30_09h38.50.877,Tutorial 6 | Delay Discounting Task,,2025.1.1,None,2025-10-30 09h39.01.081756 +0530,
49.0,60.0,89.0,41,1,4,l,1.4647602909826674,None,4,1,41,4,128.4140337500139,,128.40511925000465,128.4140337500139,129.39812458399683,129.39812458399683,129.40990362499724,130.8650783339981,l,1.4647602909826674,None,2,001,2025-10-30_09h38.50.877,Tutorial 6 | Delay Discounting Task,,2025.1.1,None,2025-10-30 09h39.01.081756 +0530,
78.0,80.0,162.0,42,2,4,t,1.5167098329984583,None,4,2,42,6,130.8796566670062,,130.87268250001944,130.8796566670062,131.86001429200405,131.86001429200405,131.87663574999897,133.37855179200415,t,1.5167098329984583,None,2,001,2025-10-30_09h38.50.877,Tutorial 6 | Delay Discounting Task,,2025.1.1,None,2025-10-30 09h39.01.081756 +0530,
9.0,18.0,12.0,43,3,4,l,1.4331664159835782,None,4,3,43,8,133.3921077499981,,133.38499758401304,133.3921077499981,134.37659962501493,134.37659962501493,134.38049395900453,135.8117362089979,l,1.4331664159835782,None,2,001,2025-10-30_09h38.50.877,Tutorial 6 | Delay Discounting Task,,2025.1.1,None,2025-10-30 09h39.01.081756 +0530,
27.0,50.0,21.0,44,4,4,l,1.400622373999795,None,4,4,44,2,135.82589274999918,,135.81832079202286,135.82589274999918,136.8101202500111,136.8101202500111,136.81454362501972,138.2149955840141,l,1.400622373999795,None,2,001,2025-10-30_09h38.50.877,Tutorial 6 | Delay Discounting Task,,2025.1.1,None,2025-10-30 09h39.01.081756 +0530,
90.0,101.0,190.0,45,5,4,l,1.9948620829964057,None,4,5,45,7,138.2433520000195,,138.22117266702116,138.2433520000195,139.20984429202508,139.20984429202508,139.2302195840166,141.2117558340251,l,1.9948620829964057,None,2,001,2025-10-30_09h38.50.877,Tutorial 6 | Delay Discounting Task,,2025.1.1,None,2025-10-30 09h39.01.081756 +0530,
67.0,75.0,119.0,46,6,4,l,2.182696332980413,None,4,6,46,5,141.22803304201807,,141.2188905000221,141.22803304201807,142.20992750002188,142.20992750002188,142.22658004201367,144.39489795902045,l,2.182696332980413,None,2,001,2025-10-30_09h38.50.877,Tutorial 6 | Delay Discounting Task,,2025.1.1,None,2025-10-30 09h39.01.081756 +0530,
15.0,35.0,13.0,47,7,4,l,2.001302791002672,None,4,7,47,1,144.41131462500198,,144.40271745901555,144.41131462500198,145.3932419590128,145.3932419590128,145.4100739590067,147.39898687502136,l,2.001302791002672,None,2,001,2025-10-30_09h38.50.877,Tutorial 6 | Delay Discounting Task,,2025.1.1,None,2025-10-30 09h39.01.081756 +0530,
50.0,69.0,49.0,48,8,4,t,1.3964890830102377,None,4,8,48,9,147.41290437499993,,147.40532950000488,147.41290437499993,148.39698962500552,148.39698962500552,148.40991637500701,149.79869733401574,t,1.3964890830102377,None,2,001,2025-10-30_09h38.50.877,Tutorial 6 | Delay Discounting Task,,2025.1.1,None,2025-10-30 09h39.01.081756 +0530,
11.0,30.0,7.0,49,9,4,l,1.5299955410009716,None,4,9,49,0,149.81298750001588,,149.80522854201263,149.81298750001588,150.79747762501938,150.79747762501938,150.80994875001488,152.33194520900724,l,1.5299955410009716,None,2,001,2025-10-30_09h38.50.877,Tutorial 6 | Delay Discounting Task,,2025.1.1,None,2025-10-30 09h39.01.081756 +0530,
27.0,50.0,21.0,50,0,5,l,1.581052166002337,None,5,0,50,2,152.34623370901681,,152.33818291701027,152.34623370901681,153.3312957920134,153.3312957920134,153.3431231249997,154.91525604200433,l,1.581052166002337,None,2,001,2025-10-30_09h38.50.877,Tutorial 6 | Delay Discounting Task,,2025.1.1,None,2025-10-30 09h39.01.081756 +0530,
49.0,60.0,89.0,51,1,5,t,1.6575534159783274,None,5,1,51,4,154.93002975001582,,154.92216775001725,154.93002975001582,155.91485762500088,155.91485762500088,155.9265062920167,157.57792300000438,t,1.6575534159783274,None,2,001,2025-10-30_09h38.50.877,Tutorial 6 | Delay Discounting Task,,2025.1.1,None,2025-10-30 09h39.01.081756 +0530,
11.0,30.0,7.0,52,2,5,l,1.0167676660057623,None,5,2,52,0,157.592210584,,157.5857452500204,157.592210584,158.57643820901285,158.57643820901285,158.57992512499914,159.5950322500139,l,1.0167676660057623,None,2,001,2025-10-30_09h38.50.877,Tutorial 6 | Delay Discounting Task,,2025.1.1,None,2025-10-30 09h39.01.081756 +0530,
40.0,55.0,62.0,53,3,5,t,2.1499300410214346,None,5,3,53,3,159.60841133401846,,159.6013666250219,159.60841133401846,160.59327062501688,160.59327062501688,160.59772770901327,162.7450852089969,t,2.1499300410214346,None,2,001,2025-10-30_09h38.50.877,Tutorial 6 | Delay Discounting Task,,2025.1.1,None,2025-10-30 09h39.01.081756 +0530,
78.0,80.0,162.0,54,4,5,t,1.851822708005784,None,5,4,54,6,162.75935687500169,,162.7520636249974,162.75935687500169,163.74324195901863,163.74324195901863,163.74801237499923,165.59924070900888,t,1.851822708005784,None,2,001,2025-10-30_09h38.50.877,Tutorial 6 | Delay Discounting Task,,2025.1.1,None,2025-10-30 09h39.01.081756 +0530,
90.0,101.0,190.0,55,5,5,t,4.379951124981744,None,5,5,55,7,165.61327766699833,,165.6058737920248,165.61327766699833,166.59818354202434,166.59818354202434,166.6098431670107,170.98219729200355,t,4.379951124981744,None,2,001,2025-10-30_09h38.50.877,Tutorial 6 | Delay Discounting Task,,2025.1.1,None,2025-10-30 09h39.01.081756 +0530,
15.0,35.0,13.0,56,6,5,l,1.109504708001623,None,5,6,56,1,170.9963171670097,,170.98872079202556,170.9963171670097,171.98128358399845,171.98128358399845,171.99313441701815,173.09508820902556,l,1.109504708001623,None,2,001,2025-10-30_09h38.50.877,Tutorial 6 | Delay Discounting Task,,2025.1.1,None,2025-10-30 09h39.01.081756 +0530,
9.0,18.0,12.0,57,7,5,l,1.3333395409863442,None,5,7,57,8,173.1100233340112,,173.1027081250213,173.1100233340112,174.0932309589989,174.0932309589989,174.09715929202503,175.43264737501158,l,1.3333395409863442,None,2,001,2025-10-30_09h38.50.877,Tutorial 6 | Delay Discounting Task,,2025.1.1,None,2025-10-30 09h39.01.081756 +0530,
50.0,69.0,49.0,58,8,5,l,1.3653678330010734,None,5,8,58,9,175.44609416701132,,175.43854600001941,175.44609416701132,176.43117979200906,176.43117979200906,176.44317066701478,177.79823183402186,l,1.3653678330010734,None,2,001,2025-10-30_09h38.50.877,Tutorial 6 | Delay Discounting Task,,2025.1.1,None,2025-10-30 09h39.01.081756 +0530,
67.0,75.0,119.0,59,9,5,l,1.4579278739984147,None,5,9,59,5,177.8127156670089,,177.80487000002177,177.8127156670089,178.798583374999,178.798583374999,178.8099596670072,180.261659959011,l,1.4579278739984147,None,2,001,2025-10-30_09h38.50.877,Tutorial 6 | Delay Discounting Task,,2025.1.1,None,2025-10-30 09h39.01.081756 +0530,
27.0,50.0,21.0,60,0,6,l,5.731321749015478,None,6,0,60,2,180.27592087502126,,180.26842995901825,180.27592087502126,181.2597990000213,181.2597990000213,181.26415945900953,186.99502058399958,l,5.731321749015478,None,2,001,2025-10-30_09h38.50.877,Tutorial 6 | Delay Discounting Task,,2025.1.1,None,2025-10-30 09h39.01.081756 +0530,
90.0,101.0,190.0,61,1,6,t,2.660435291007161,None,6,1,61,7,187.0097455420182,,187.00207879202208,187.0097455420182,187.9932808340236,187.9932808340236,187.99830254202243,190.6616500840173,t,2.660435291007161,None,2,001,2025-10-30_09h38.50.877,Tutorial 6 | Delay Discounting Task,,2025.1.1,None,2025-10-30 09h39.01.081756 +0530,
40.0,55.0,62.0,62,2,6,t,2.1017361659905873,None,6,2,62,3,190.67731141700642,,190.66944054199848,190.67731141700642,191.6598147090117,191.6598147090117,191.66412187501555,193.76532208401477,t,2.1017361659905873,None,2,001,2025-10-30_09h38.50.877,Tutorial 6 | Delay Discounting Task,,2025.1.1,None,2025-10-30 09h39.01.081756 +0530,
15.0,35.0,13.0,63,3,6,l,2.2007677490182687,None,6,3,63,1,193.77990987501107,,193.77173062501242,193.77990987501107,194.7598023750179,194.7598023750179,194.77643783402164,196.9660497920122,l,2.2007677490182687,None,2,001,2025-10-30_09h38.50.877,Tutorial 6 | Delay Discounting Task,,2025.1.1,None,2025-10-30 09h39.01.081756 +0530,
11.0,30.0,7.0,64,4,6,l,3.6490512910240795,None,6,4,64,0,196.97951825000928,,196.97256416702294,196.97951825000928,197.9643375420128,197.9643375420128,197.97662087500794,201.61507462500595,l,3.6490512910240795,None,2,001,2025-10-30_09h38.50.877,Tutorial 6 | Delay Discounting Task,,2025.1.1,None,2025-10-30 09h39.01.081756 +0530,
9.0,18.0,12.0,65,5,6,l,4.4995603330025915,None,6,5,65,8,201.62976083401009,,201.62136237500818,201.62976083401009,202.61483783400035,202.61483783400035,202.62639070901787,207.12788279200322,l,4.4995603330025915,None,2,001,2025-10-30_09h38.50.877,Tutorial 6 | Delay Discounting Task,,2025.1.1,None,2025-10-30 09h39.01.081756 +0530,
67.0,75.0,119.0,66,6,6,l,1.4255959580186754,None,6,6,66,5,207.14148074999684,,207.1347322500078,207.14148074999684,208.1263794999977,208.1263794999977,208.13028091701563,209.56135541701224,l,1.4255959580186754,None,2,001,2025-10-30_09h38.50.877,Tutorial 6 | Delay Discounting Task,,2025.1.1,None,2025-10-30 09h39.01.081756 +0530,
49.0,60.0,89.0,67,7,6,l,3.2637938740081154,None,6,7,67,4,209.57593350001844,,209.56893354200292,209.57593350001844,210.5596854170144,210.5596854170144,210.56337216700194,213.82881183401332,l,3.2637938740081154,None,2,001,2025-10-30_09h38.50.877,Tutorial 6 | Delay Discounting Task,,2025.1.1,None,2025-10-30 09h39.01.081756 +0530,
78.0,80.0,162.0,68,8,6,t,1.600446833006572,None,6,8,68,6,213.84262062501512,,213.83572233401355,213.84262062501512,214.8265198340232,214.8265198340232,214.83035991701763,216.4309344170033,t,1.600446833006572,None,2,001,2025-10-30_09h38.50.877,Tutorial 6 | Delay Discounting Task,,2025.1.1,None,2025-10-30 09h39.01.081756 +0530,
50.0,69.0,49.0,69,9,6,t,10.522259249002673,None,6,9,69,9,216.4457117500133,,216.43765091701061,216.4457117500133,217.43120099999942,217.43120099999942,217.4430144590151,227.96151337501942,t,10.522259249002673,None,2,001,2025-10-30_09h38.50.877,Tutorial 6 | Delay Discounting Task,,2025.1.1,None,2025-10-30 09h39.01.081756 +0530,
90.0,101.0,190.0,70,0,7,t,3.0751173330063466,None,7,0,70,7,227.97468087502057,,227.96812654202222,227.97468087502057,228.95983158401214,228.95983158401214,228.96413916701567,232.04469033400528,t,3.0751173330063466,None,2,001,2025-10-30_09h38.50.877,Tutorial 6 | Delay Discounting Task,,2025.1.1,None,2025-10-30 09h39.01.081756 +0530,
9.0,18.0,12.0,71,1,7,l,2.3217745820002165,None,7,1,71,8,232.05815079199965,,232.05113637499744,232.05815079199965,233.04304095901898,233.04304095901898,233.0469446250063,235.37809445901075,l,2.3217745820002165,None,2,001,2025-10-30_09h38.50.877,Tutorial 6 | Delay Discounting Task,,2025.1.1,None,2025-10-30 09h39.01.081756 +0530,
49.0,60.0,89.0,72,2,7,t,2.0992415829969104,None,7,2,72,4,235.39260700001614,,235.3853963750007,235.39260700001614,236.3765523339971,236.3765523339971,236.3805787920137,238.47827104199678,t,2.0992415829969104,None,2,001,2025-10-30_09h38.50.877,Tutorial 6 | Delay Discounting Task,,2025.1.1,None,2025-10-30 09h39.01.081756 +0530,
11.0,30.0,7.0,73,3,7,l,1.5323860829812475,None,7,3,73,0,238.49257654201938,,238.48520679201465,238.49257654201938,239.4763353750168,239.4763353750168,239.4802336670109,241.01159216702217,l,1.5323860829812475,None,2,001,2025-10-30_09h38.50.877,Tutorial 6 | Delay Discounting Task,,2025.1.1,None,2025-10-30 09h39.01.081756 +0530,
50.0,69.0,49.0,74,4,7,t,3.9357727080059703,None,7,4,74,9,241.02617383401957,,241.0188567500154,241.02617383401957,242.00992262500222,242.00992262500222,242.01372925000032,245.9480702090077,t,3.9357727080059703,None,2,001,2025-10-30_09h38.50.877,Tutorial 6 | Delay Discounting Task,,2025.1.1,None,2025-10-30 09h39.01.081756 +0530,
78.0,80.0,162.0,75,5,7,t,1.6221389579877723,None,7,5,75,6,245.9626316250069,,245.9548855840112,245.9626316250069,246.94965604200843,246.94965604200843,246.95966125000268,248.57811854200554,t,1.6221389579877723,None,2,001,2025-10-30_09h38.50.877,Tutorial 6 | Delay Discounting Task,,2025.1.1,None,2025-10-30 09h39.01.081756 +0530,
15.0,35.0,13.0,76,6,7,l,1.354264249006519,None,7,6,76,1,248.59285924999858,,248.58544366701972,248.59285924999858,249.5764127090224,249.5764127090224,249.58029704200453,250.94489691700437,l,1.354264249006519,None,2,001,2025-10-30_09h38.50.877,Tutorial 6 | Delay Discounting Task,,2025.1.1,None,2025-10-30 09h39.01.081756 +0530,
67.0,75.0,119.0,77,7,7,t,7.0268306660000235,None,7,7,77,5,250.95911525000702,,250.9524151670048,250.95911525000702,251.94314737501554,251.94314737501554,251.94755599999917,258.977901959006,t,7.0268306660000235,None,2,001,2025-10-30_09h38.50.877,Tutorial 6 | Delay Discounting Task,,2025.1.1,None,2025-10-30 09h39.01.081756 +0530,
27.0,50.0,21.0,78,8,7,t,2.3915700830111746,None,7,8,78,2,258.9932845000003,,258.9848725000047,258.9932845000003,259.97638216702035,259.97638216702035,259.98109187500086,262.37824416701915,t,2.3915700830111746,None,2,001,2025-10-30_09h38.50.877,Tutorial 6 | Delay Discounting Task,,2025.1.1,None,2025-10-30 09h39.01.081756 +0530,
40.0,55.0,62.0,79,9,7,t,1.504427998996107,None,7,9,79,3,262.3934195000038,,262.3852675000089,262.3934195000038,263.37644316701335,263.37644316701335,263.380291709007,264.89483775000554,t,1.504427998996107,None,2,001,2025-10-30_09h38.50.877,Tutorial 6 | Delay Discounting Task,,2025.1.1,None,2025-10-30 09h39.01.081756 +0530,
27.0,50.0,21.0,80,0,8,l,2.5204677910078317,None,8,0,80,2,264.9089936670207,,264.9014670000179,264.9089936670207,265.89326720900135,265.89326720900135,265.8974154590105,268.4266806670057,l,2.5204677910078317,None,2,001,2025-10-30_09h38.50.877,Tutorial 6 | Delay Discounting Task,,2025.1.1,None,2025-10-30 09h39.01.081756 +0530,
40.0,55.0,62.0,81,1,8,t,1.2958331239933614,None,8,1,81,3,268.44082295900444,,268.4333927090047,268.44082295900444,269.41489545902004,269.41489545902004,269.4300135420053,270.71446658400237,t,1.2958331239933614,None,2,001,2025-10-30_09h38.50.877,Tutorial 6 | Delay Discounting Task,,2025.1.1,None,2025-10-30 09h39.01.081756 +0530,
78.0,80.0,162.0,82,2,8,t,1.6763765409996267,None,8,2,82,6,270.72931162500754,,270.7222272500221,270.72931162500754,271.71620112500386,271.71620112500386,271.72648687500623,273.3947493340238,t,1.6763765409996267,None,2,001,2025-10-30_09h38.50.877,Tutorial 6 | Delay Discounting Task,,2025.1.1,None,2025-10-30 09h39.01.081756 +0530,
9.0,18.0,12.0,83,3,8,l,1.2088313329732046,None,8,3,83,8,273.4079854590236,,273.40091354202013,273.4079854590236,274.3928203340038,274.3928203340038,274.3963934589992,275.6120374170132,l,1.2088313329732046,None,2,001,2025-10-30_09h38.50.877,Tutorial 6 | Delay Discounting Task,,2025.1.1,None,2025-10-30 09h39.01.081756 +0530,
90.0,101.0,190.0,84,4,8,t,1.2567588750098366,None,8,4,84,7,275.62532904199907,,275.6199747089995,275.62532904199907,276.60975025000516,276.60975025000516,276.61376520901104,277.87769712501904,t,1.2567588750098366,None,2,001,2025-10-30_09h38.50.877,Tutorial 6 | Delay Discounting Task,,2025.1.1,None,2025-10-30 09h39.01.081756 +0530,
50.0,69.0,49.0,85,5,8,t,3.7331966659985483,None,8,5,85,9,277.89106066702516,,277.88389437500155,277.89106066702516,278.876369125006,278.876369125006,278.88072841701796,282.6115558340098,t,3.7331966659985483,None,2,001,2025-10-30_09h38.50.877,Tutorial 6 | Delay Discounting Task,,2025.1.1,None,2025-10-30 09h39.01.081756 +0530,
49.0,60.0,89.0,86,6,8,t,2.1975602910097223,None,8,6,86,4,282.6258592500235,,282.61855304200435,282.6258592500235,283.60956475001876,283.60956475001876,283.61330262501724,285.811459959019,t,2.1975602910097223,None,2,001,2025-10-30_09h38.50.877,Tutorial 6 | Delay Discounting Task,,2025.1.1,None,2025-10-30 09h39.01.081756 +0530,
11.0,30.0,7.0,87,7,8,l,1.2166200410283636,None,8,7,87,0,285.8261769170058,,285.81923608400393,285.8261769170058,286.809487792023,286.809487792023,286.81340408400865,288.02818641701015,l,1.2166200410283636,None,2,001,2025-10-30_09h38.50.877,Tutorial 6 | Delay Discounting Task,,2025.1.1,None,2025-10-30 09h39.01.081756 +0530,
15.0,35.0,13.0,88,8,8,l,1.7167062910157256,None,8,8,88,1,288.04145220899954,,288.0342792090087,288.04145220899954,289.02631725001265,289.02631725001265,289.0302378339984,290.7453226670041,l,1.7167062910157256,None,2,001,2025-10-30_09h38.50.877,Tutorial 6 | Delay Discounting Task,,2025.1.1,None,2025-10-30 09h39.01.081756 +0530,
67.0,75.0,119.0,89,9,8,t,1.0867957080190536,None,8,9,89,5,290.7623286250164,,290.7526680419978,290.7623286250164,291.7431760840118,291.7431760840118,291.7597893339989,292.84481375000905,t,1.0867957080190536,None,2,001,2025-10-30_09h38.50.877,Tutorial 6 | Delay Discounting Task,,2025.1.1,None,2025-10-30 09h39.01.081756 +0530,
49.0,60.0,89.0,90,0,9,l,4.284848374983994,None,9,0,90,4,292.85970349999843,,292.85145204199944,292.85970349999843,293.8429757920094,293.8429757920094,293.8468259170186,298.1315374170081,l,4.284848374983994,None,2,001,2025-10-30_09h38.50.877,Tutorial 6 | Delay Discounting Task,,2025.1.1,None,2025-10-30 09h39.01.081756 +0530,
40.0,55.0,62.0,91,1,9,l,1.5908619580150116,None,9,1,91,3,298.14609554200433,,298.1380496250058,298.14609554200433,299.13194950000616,299.13194950000616,299.1429169590119,300.72823162502027,l,1.5908619580150116,None,2,001,2025-10-30_09h38.50.877,Tutorial 6 | Delay Discounting Task,,2025.1.1,None,2025-10-30 09h39.01.081756 +0530,
9.0,18.0,12.0,92,2,9,t,1.2122438329970464,None,9,2,92,8,300.7441736670153,,300.7361984590243,300.7441736670153,301.7261935000133,301.7261935000133,301.7429323340184,302.9453595840023,t,1.2122438329970464,None,2,001,2025-10-30_09h38.50.877,Tutorial 6 | Delay Discounting Task,,2025.1.1,None,2025-10-30 09h39.01.081756 +0530,
78.0,80.0,162.0,93,3,9,t,6.487542249989929,None,9,3,93,6,302.96075087500503,,302.95253550002235,302.96075087500503,303.94279862500844,303.94279862500844,303.9596163750102,310.4315897920169,t,6.487542249989929,None,2,001,2025-10-30_09h38.50.877,Tutorial 6 | Delay Discounting Task,,2025.1.1,None,2025-10-30 09h39.01.081756 +0530,
11.0,30.0,7.0,94,4,9,l,2.8358253330225125,None,9,4,94,0,310.445775375003,,310.43767129202024,310.445775375003,311.43095145901316,311.43095145901316,311.44300058399676,314.27853562502423,l,2.8358253330225125,None,2,001,2025-10-30_09h38.50.877,Tutorial 6 | Delay Discounting Task,,2025.1.1,None,2025-10-30 09h39.01.081756 +0530,
50.0,69.0,49.0,95,5,9,l,2.5565806239901576,None,9,5,95,9,314.2912632920197,,314.2853129170253,314.2912632920197,315.2761888750247,315.2761888750247,315.27997804200277,317.84466525001335,l,2.5565806239901576,None,2,001,2025-10-30_09h38.50.877,Tutorial 6 | Delay Discounting Task,,2025.1.1,None,2025-10-30 09h39.01.081756 +0530,
90.0,101.0,190.0,96,6,9,t,1.2888660410244484,None,9,6,96,7,317.85894104201,,317.8517039590224,317.85894104201,318.84287104199757,318.84287104199757,318.8465908340004,320.14488779200474,t,1.2888660410244484,None,2,001,2025-10-30_09h38.50.877,Tutorial 6 | Delay Discounting Task,,2025.1.1,None,2025-10-30 09h39.01.081756 +0530,
67.0,75.0,119.0,97,7,9,l,4.892246706993319,None,9,7,97,5,320.1606834999984,,320.15257125001517,320.1606834999984,321.14281233400106,321.14281233400106,321.159641834005,326.04472975002136,l,4.892246706993319,None,2,001,2025-10-30_09h38.50.877,Tutorial 6 | Delay Discounting Task,,2025.1.1,None,2025-10-30 09h39.01.081756 +0530,
15.0,35.0,13.0,98,8,9,l,2.781609750003554,None,9,8,98,1,326.0595958339982,,326.0520910840132,326.0595958339982,327.0428815839987,327.0428815839987,327.0466676670185,329.82790862501133,l,2.781609750003554,None,2,001,2025-10-30_09h38.50.877,Tutorial 6 | Delay Discounting Task,,2025.1.1,None,2025-10-30 09h39.01.081756 +0530,
27.0,50.0,21.0,99,9,9,l,1.4191707910213154,None,9,9,99,2,329.84153725000215,,329.83439991701744,329.84153725000215,330.8262185000058,330.8262185000058,330.8301566670125,332.247881459014,l,1.4191707910213154,None,2,001,2025-10-30_09h38.50.877,Tutorial 6 | Delay Discounting Task,,2025.1.1,None,2025-10-30 09h39.01.081756 +0530,
