thisN,thisTrialN,thisRepN,mouse.x,mouse.y,mouse.leftButton,mouse.midButton,mouse.rightButton,mouse.time,mouse.clicked_name,trials.thisRepN,trials.thisTrialN,trials.thisN,trials.thisIndex,thisRow.t,notes,num_distr,trial.started,fixation.started,target.started,mouse.started,trial.stopped,trials.mouse.x,trials.mouse.y,trials.mouse.leftButton,trials.mouse.midButton,trials.mouse.rightButton,trials.mouse.time,trials.mouse.clicked_name,participant,session,date,expName,expVersion,psychopyVersion,frameRate,expStart,
0,0,0,[np.float64(0.49666666666666665)],[np.float64(-0.08666666666666667)],[1],[0],[0],[2.4145035420078784],['target'],0,0,0,0,0.021901458996580914,,10,0.014009374979650602,0.021901458996580914,0.021901458996580914,0.014018582995049655,2.4285813339811284,[np.float64(0.49666666666666665)],[np.float64(-0.08666666666666667)],[1],[0],[0],[2.4145035420078784],['target'],2,001,2025-09-28_16h49.31.421,Visual Search Experiment,,2025.1.1,None,2025-09-28 16h49.37.936172 +0530,
1,0,1,[np.float64(0.2)],[np.float64(-0.4583333333333333)],[1],[0],[0],[1.5545596670126542],['target'],1,0,1,0,2.4461202090024017,,5,2.4397011669934727,2.4461202090024017,2.4461202090024017,0.010882375005166978,3.9943179589754436,[np.float64(0.2)],[np.float64(-0.4583333333333333)],[1],[0],[0],[1.5545596670126542],['target'],2,001,2025-09-28_16h49.31.421,Visual Search Experiment,,2025.1.1,None,2025-09-28 16h49.37.936172 +0530,
2,0,2,[np.float64(0.14)],[np.float64(-0.01)],[1],[0],[0],[1.294427499989979],['target'],2,0,2,0,4.025135749980109,,10,4.016502708982443,4.025135749980109,4.025135749980109,0.02200587498373352,5.3109690839773975,[np.float64(0.14)],[np.float64(-0.01)],[1],[0],[0],[1.294427499989979],['target'],2,001,2025-09-28_16h49.31.421,Visual Search Experiment,,2025.1.1,None,2025-09-28 16h49.37.936172 +0530,
3,0,3,[np.float64(-0.19666666666666666)],[np.float64(-0.3883333333333333)],[1],[0],[0],[2.240082749980502],['target'],3,0,3,0,5.328528499987442,,5,5.322487375000492,5.328528499987442,5.328528499987442,0.011357541021425277,7.562633499997901,[np.float64(-0.19666666666666666)],[np.float64(-0.3883333333333333)],[1],[0],[0],[2.240082749980502],['target'],2,001,2025-09-28_16h49.31.421,Visual Search Experiment,,2025.1.1,None,2025-09-28 16h49.37.936172 +0530,
4,0,4,[np.float64(0.4633333333333333)],[np.float64(-0.25833333333333336)],[1],[0],[0],[1.6426710000087041],['target'],4,0,4,0,7.593760999996448,,10,7.584950124990428,7.593760999996448,7.593760999996448,0.022128207987407222,9.227664249978261,[np.float64(0.4633333333333333)],[np.float64(-0.25833333333333336)],[1],[0],[0],[1.6426710000087041],['target'],2,001,2025-09-28_16h49.31.421,Visual Search Experiment,,2025.1.1,None,2025-09-28 16h49.37.936172 +0530,
5,0,5,[np.float64(-0.23333333333333334)],[np.float64(0.18)],[1],[0],[0],[1.7404618749860674],['target'],5,0,5,0,9.245029999990948,,5,9.238873416994466,9.245029999990948,9.245029999990948,0.011042958998586982,10.979396583978087,[np.float64(-0.23333333333333334)],[np.float64(0.18)],[1],[0],[0],[1.7404618749860674],['target'],2,001,2025-09-28_16h49.31.421,Visual Search Experiment,,2025.1.1,None,2025-09-28 16h49.37.936172 +0530,
6,0,6,[np.float64(0.37)],[np.float64(0.3466666666666667)],[1],[0],[0],[1.45097945901216],['target'],6,0,6,0,10.999476874974789,,5,10.992816458980087,10.999476874974789,10.999476874974789,0.013250541989691556,12.443849249975756,[np.float64(0.37)],[np.float64(0.3466666666666667)],[1],[0],[0],[1.45097945901216],['target'],2,001,2025-09-28_16h49.31.421,Visual Search Experiment,,2025.1.1,None,2025-09-28 16h49.37.936172 +0530,
7,0,7,[np.float64(0.24)],[np.float64(0.18)],[1],[0],[0],[1.3281225829850882],['target'],7,0,7,0,12.474285374977626,,10,12.465670541976579,12.474285374977626,12.474285374977626,0.02164062499650754,13.793830958980834,[np.float64(0.24)],[np.float64(0.18)],[1],[0],[0],[1.3281225829850882],['target'],2,001,2025-09-28_16h49.31.421,Visual Search Experiment,,2025.1.1,None,2025-09-28 16h49.37.936172 +0530,
8,0,8,[np.float64(-0.395)],[np.float64(0.095)],[1],[0],[0],[2.1567542080010753],['target'],8,0,8,0,13.81043437498738,,5,13.80423629199504,13.81043437498738,13.81043437498738,0.01024283401784487,15.961061291978694,[np.float64(-0.395)],[np.float64(0.095)],[1],[0],[0],[2.1567542080010753],['target'],2,001,2025-09-28_16h49.31.421,Visual Search Experiment,,2025.1.1,None,2025-09-28 16h49.37.936172 +0530,
9,0,9,[np.float64(-0.42)],[np.float64(0.4583333333333333)],[1],[0],[0],[2.5625080830068327],['target'],9,0,9,0,15.990475749975303,,10,15.981982291996246,15.990475749975303,15.990475749975303,0.0207269589882344,18.5445324589964,[np.float64(-0.42)],[np.float64(0.4583333333333333)],[1],[0],[0],[2.5625080830068327],['target'],2,001,2025-09-28_16h49.31.421,Visual Search Experiment,,2025.1.1,None,2025-09-28 16h49.37.936172 +0530,
10,0,10,[np.float64(-0.29)],[np.float64(0.4816666666666667)],[1],[0],[0],[1.1060612080036663],['target'],10,0,10,0,18.562450749974232,,5,18.556244666979183,18.562450749974232,18.562450749974232,0.011547082976903766,19.662375583982794,[np.float64(-0.29)],[np.float64(0.4816666666666667)],[1],[0],[0],[1.1060612080036663],['target'],2,001,2025-09-28_16h49.31.421,Visual Search Experiment,,2025.1.1,None,2025-09-28 16h49.37.936172 +0530,
11,0,11,[np.float64(-0.4866666666666667)],[np.float64(-0.4816666666666667)],[1],[0],[0],[1.7263109170016833],['target'],11,0,11,0,19.69348554199678,,10,19.68469858399476,19.69348554199678,19.69348554199678,0.022143167007016018,21.41105087500182,[np.float64(-0.4866666666666667)],[np.float64(-0.4816666666666667)],[1],[0],[0],[1.7263109170016833],['target'],2,001,2025-09-28_16h49.31.421,Visual Search Experiment,,2025.1.1,None,2025-09-28 16h49.37.936172 +0530,
12,0,12,[np.float64(0.16333333333333333)],[np.float64(-0.18833333333333332)],[1],[0],[0],[1.5293396250053775],['target'],12,0,12,0,21.439936124981614,,10,21.431346041994402,21.439936124981614,21.439936124981614,0.02013179098139517,22.960737749992404,[np.float64(0.16333333333333333)],[np.float64(-0.18833333333333332)],[1],[0],[0],[1.5293396250053775],['target'],2,001,2025-09-28_16h49.31.421,Visual Search Experiment,,2025.1.1,None,2025-09-28 16h49.37.936172 +0530,
13,0,13,[np.float64(0.275)],[np.float64(-0.05)],[1],[0],[0],[1.0489516670058947],['target'],13,0,13,0,22.98568770897691,,10,22.97877783398144,22.98568770897691,22.98568770897691,0.017865874979179353,24.0277737499855,[np.float64(0.275)],[np.float64(-0.05)],[1],[0],[0],[1.0489516670058947],['target'],2,001,2025-09-28_16h49.31.421,Visual Search Experiment,,2025.1.1,None,2025-09-28 16h49.37.936172 +0530,
14,0,14,[np.float64(-0.10833333333333334)],[np.float64(-0.08166666666666667)],[1],[0],[0],[1.596229292015778],['target'],14,0,14,0,24.055675416981103,,10,24.048342083988246,24.055675416981103,24.055675416981103,0.020407707983395085,25.644614916993305,[np.float64(-0.10833333333333334)],[np.float64(-0.08166666666666667)],[1],[0],[0],[1.596229292015778],['target'],2,001,2025-09-28_16h49.31.421,Visual Search Experiment,,2025.1.1,None,2025-09-28 16h49.37.936172 +0530,
15,0,15,[np.float64(-0.18166666666666667)],[np.float64(-0.42333333333333334)],[1],[0],[0],[1.663937667006394],['target'],15,0,15,0,25.672017167002195,,10,25.664019999996526,25.672017167002195,25.672017167002195,0.01923237499431707,27.327998124994338,[np.float64(-0.18166666666666667)],[np.float64(-0.42333333333333334)],[1],[0],[0],[1.663937667006394],['target'],2,001,2025-09-28_16h49.31.421,Visual Search Experiment,,2025.1.1,None,2025-09-28 16h49.37.936172 +0530,
16,0,16,[np.float64(0.265)],[np.float64(-0.12333333333333334)],[1],[0],[0],[1.4876413329911884],['target'],16,0,16,0,27.34569287498016,,5,27.33943399999407,27.34569287498016,27.34569287498016,0.011272500007180497,28.827143958973465,[np.float64(0.265)],[np.float64(-0.12333333333333334)],[1],[0],[0],[1.4876413329911884],['target'],2,001,2025-09-28_16h49.31.421,Visual Search Experiment,,2025.1.1,None,2025-09-28 16h49.37.936172 +0530,
17,0,17,[np.float64(0.3933333333333333)],[np.float64(0.023333333333333334)],[1],[0],[0],[1.2960020409955177],['target'],17,0,17,0,28.855993999983184,,10,28.847665958979633,28.855993999983184,28.855993999983184,0.020348041027318686,30.14370287497877,[np.float64(0.3933333333333333)],[np.float64(0.023333333333333334)],[1],[0],[0],[1.2960020409955177],['target'],2,001,2025-09-28_16h49.31.421,Visual Search Experiment,,2025.1.1,None,2025-09-28 16h49.37.936172 +0530,
18,0,18,[np.float64(-0.26666666666666666)],[np.float64(-0.475)],[1],[0],[0],[3.3557406660111155],['target'],18,0,18,0,30.16076354199322,,5,30.154759458993794,30.16076354199322,30.16076354199322,0.010869833000469953,33.510556875000475,[np.float64(-0.26666666666666666)],[np.float64(-0.475)],[1],[0],[0],[3.3557406660111155],['target'],2,001,2025-09-28_16h49.31.421,Visual Search Experiment,,2025.1.1,None,2025-09-28 16h49.37.936172 +0530,
19,0,19,[np.float64(-0.15833333333333333)],[np.float64(0.49)],[1],[0],[0],[5.0796321670059115],['target'],19,0,19,0,33.539775999990525,,10,33.53108279197477,33.539775999990525,33.539775999990525,0.020379250025143847,38.610755666974,[np.float64(-0.15833333333333333)],[np.float64(0.49)],[1],[0],[0],[5.0796321670059115],['target'],2,001,2025-09-28_16h49.31.421,Visual Search Experiment,,2025.1.1,None,2025-09-28 16h49.37.936172 +0530,
20,0,20,[np.float64(-0.48833333333333334)],[np.float64(-0.06833333333333333)],[1],[0],[0],[3.1134289579931647],['target'],20,0,20,0,38.637852791987825,,10,38.630244916974334,38.637852791987825,38.637852791987825,0.019307915994431823,41.74370962497778,[np.float64(-0.48833333333333334)],[np.float64(-0.06833333333333333)],[1],[0],[0],[3.1134289579931647],['target'],2,001,2025-09-28_16h49.31.421,Visual Search Experiment,,2025.1.1,None,2025-09-28 16h49.37.936172 +0530,
21,0,21,[np.float64(-0.08166666666666667)],[np.float64(-0.06333333333333334)],[1],[0],[0],[1.1169042080000509],['target'],21,0,21,0,41.768728791998,,10,41.761453708983026,41.768728791998,41.768728791998,0.017601708008442074,42.878403499984415,[np.float64(-0.08166666666666667)],[np.float64(-0.06333333333333334)],[1],[0],[0],[1.1169042080000509],['target'],2,001,2025-09-28_16h49.31.421,Visual Search Experiment,,2025.1.1,None,2025-09-28 16h49.37.936172 +0530,
22,0,22,[np.float64(-0.4766666666666667)],[np.float64(-0.4216666666666667)],[1],[0],[0],[2.4126354999898467],['target'],22,0,22,0,42.90686508399085,,10,42.89854499997455,42.90686508399085,42.90686508399085,0.01997858300455846,45.31122591698659,[np.float64(-0.4766666666666667)],[np.float64(-0.4216666666666667)],[1],[0],[0],[2.4126354999898467],['target'],2,001,2025-09-28_16h49.31.421,Visual Search Experiment,,2025.1.1,None,2025-09-28 16h49.37.936172 +0530,
23,0,23,[np.float64(0.11166666666666666)],[np.float64(-0.395)],[1],[0],[0],[1.7233694169844966],['target'],23,0,23,0,45.328989333997015,,5,45.32250470897998,45.328989333997015,45.328989333997015,0.011113874992588535,47.04594237499987,[np.float64(0.11166666666666666)],[np.float64(-0.395)],[1],[0],[0],[1.7233694169844966],['target'],2,001,2025-09-28_16h49.31.421,Visual Search Experiment,,2025.1.1,None,2025-09-28 16h49.37.936172 +0530,
24,0,24,[np.float64(0.3433333333333333)],[np.float64(0.43833333333333335)],[1],[0],[0],[2.909861499996623],['target'],24,0,24,0,47.07614091699361,,10,47.06749716697959,47.07614091699361,47.07614091699361,0.02138270900468342,49.97739587500109,[np.float64(0.3433333333333333)],[np.float64(0.43833333333333335)],[1],[0],[0],[2.909861499996623],['target'],2,001,2025-09-28_16h49.31.421,Visual Search Experiment,,2025.1.1,None,2025-09-28 16h49.37.936172 +0530,
25,0,25,[np.float64(0.2966666666666667)],[np.float64(0.38666666666666666)],[1],[0],[0],[0.8640109159750864],['target'],25,0,25,0,50.004066458990565,,10,49.99649191700155,50.004066458990565,50.004066458990565,0.01891895802691579,50.860544541996205,[np.float64(0.2966666666666667)],[np.float64(0.38666666666666666)],[1],[0],[0],[0.8640109159750864],['target'],2,001,2025-09-28_16h49.31.421,Visual Search Experiment,,2025.1.1,None,2025-09-28 16h49.37.936172 +0530,
26,0,26,[np.float64(0.4766666666666667)],[np.float64(0.34)],[1],[0],[0],[0.8473217920109164],['target'],26,0,26,0,50.887626958981855,,10,50.88001141700079,50.887626958981855,50.887626958981855,0.01929679198656231,51.727372083987575,[np.float64(0.4766666666666667)],[np.float64(0.34)],[1],[0],[0],[0.8473217920109164],['target'],2,001,2025-09-28_16h49.31.421,Visual Search Experiment,,2025.1.1,None,2025-09-28 16h49.37.936172 +0530,
27,0,27,[np.float64(-0.2)],[np.float64(0.19)],[1],[0],[0],[1.2391829170228448],['target'],27,0,27,0,51.744651749992045,,5,51.738262541999575,51.744651749992045,51.744651749992045,0.010730042005889118,52.97750474998611,[np.float64(-0.2)],[np.float64(0.19)],[1],[0],[0],[1.2391829170228448],['target'],2,001,2025-09-28_16h49.31.421,Visual Search Experiment,,2025.1.1,None,2025-09-28 16h49.37.936172 +0530,
28,0,28,[np.float64(-0.445)],[np.float64(-0.43833333333333335)],[1],[0],[0],[2.020674125000369],['target'],28,0,28,0,52.99577312497422,,5,52.98932145899744,52.99577312497422,52.99577312497422,0.01164470802177675,55.010053916979814,[np.float64(-0.445)],[np.float64(-0.43833333333333335)],[1],[0],[0],[2.020674125000369],['target'],2,001,2025-09-28_16h49.31.421,Visual Search Experiment,,2025.1.1,None,2025-09-28 16h49.37.936172 +0530,
29,0,29,[np.float64(-0.095)],[np.float64(0.018333333333333333)],[1],[0],[0],[1.0632713329978287],['target'],29,0,29,0,55.038749833998736,,10,55.03048741698149,55.038749833998736,55.038749833998736,0.020255875017028302,56.09379820898175,[np.float64(-0.095)],[np.float64(0.018333333333333333)],[1],[0],[0],[1.0632713329978287],['target'],2,001,2025-09-28_16h49.31.421,Visual Search Experiment,,2025.1.1,None,2025-09-28 16h49.37.936172 +0530,
30,0,30,[np.float64(0.07166666666666667)],[np.float64(0.41)],[1],[0],[0],[2.2980412500037346],['target'],30,0,30,0,56.1197483339929,,10,56.112479208997684,56.1197483339929,56.1197483339929,0.018513500021072105,58.41056574997492,[np.float64(0.07166666666666667)],[np.float64(0.41)],[1],[0],[0],[2.2980412500037346],['target'],2,001,2025-09-28_16h49.31.421,Visual Search Experiment,,2025.1.1,None,2025-09-28 16h49.37.936172 +0530,
31,0,31,[np.float64(-0.47833333333333333)],[np.float64(-0.16666666666666666)],[1],[0],[0],[2.8815247919992544],['target'],31,0,31,0,58.436674917000346,,10,58.429433458979474,58.436674917000346,58.436674917000346,0.018703167006606236,61.31100620899815,[np.float64(-0.47833333333333333)],[np.float64(-0.16666666666666666)],[1],[0],[0],[2.8815247919992544],['target'],2,001,2025-09-28_16h49.31.421,Visual Search Experiment,,2025.1.1,None,2025-09-28 16h49.37.936172 +0530,
32,0,32,[np.float64(-0.315)],[np.float64(0.4166666666666667)],[1],[0],[0],[2.22301737498492],['target'],32,0,32,0,61.328849791985704,,5,61.3225398339855,61.328849791985704,61.328849791985704,0.011342916986905038,63.54563041697838,[np.float64(-0.315)],[np.float64(0.4166666666666667)],[1],[0],[0],[2.22301737498492],['target'],2,001,2025-09-28_16h49.31.421,Visual Search Experiment,,2025.1.1,None,2025-09-28 16h49.37.936172 +0530,
33,0,33,[np.float64(0.445)],[np.float64(0.06666666666666667)],[1],[0],[0],[2.4520845000224654],['target'],33,0,33,0,63.56576212498476,,5,63.559015374979936,63.56576212498476,63.56576212498476,0.013204207993112504,66.01115924998885,[np.float64(0.445)],[np.float64(0.06666666666666667)],[1],[0],[0],[2.4520845000224654],['target'],2,001,2025-09-28_16h49.31.421,Visual Search Experiment,,2025.1.1,None,2025-09-28 16h49.37.936172 +0530,
34,0,34,[np.float64(0.2683333333333333)],[np.float64(0.051666666666666666)],[1],[0],[0],[1.4111049170023762],['target'],34,0,34,0,66.04244362498866,,10,66.03367770899786,66.04244362498866,66.04244362498866,0.022337792004691437,67.44482312499895,[np.float64(0.2683333333333333)],[np.float64(0.051666666666666666)],[1],[0],[0],[1.4111049170023762],['target'],2,001,2025-09-28_16h49.31.421,Visual Search Experiment,,2025.1.1,None,2025-09-28 16h49.37.936172 +0530,
35,0,35,[np.float64(0.19166666666666668)],[np.float64(-0.055)],[1],[0],[0],[1.0894958330027293],['target'],35,0,35,0,67.46303391698166,,5,67.45657820897759,67.46303391698166,67.46303391698166,0.011590707988943905,68.54613958398113,[np.float64(0.19166666666666668)],[np.float64(-0.055)],[1],[0],[0],[1.0894958330027293],['target'],2,001,2025-09-28_16h49.31.421,Visual Search Experiment,,2025.1.1,None,2025-09-28 16h49.37.936172 +0530,
36,0,36,[np.float64(0.265)],[np.float64(-0.44)],[1],[0],[0],[2.4433103750052396],['target'],36,0,36,0,68.57761162499082,,10,68.56871049999609,68.57761162499082,68.57761162499082,0.022397916007321328,71.01207583397627,[np.float64(0.265)],[np.float64(-0.44)],[1],[0],[0],[2.4433103750052396],['target'],2,001,2025-09-28_16h49.31.421,Visual Search Experiment,,2025.1.1,None,2025-09-28 16h49.37.936172 +0530,
37,0,37,[np.float64(0.011666666666666667)],[np.float64(0.21666666666666667)],[1],[0],[0],[1.961491207999643],['target'],37,0,37,0,71.04071583398036,,10,71.03245104197413,71.04071583398036,71.04071583398036,0.02014733399846591,72.99398349999683,[np.float64(0.011666666666666667)],[np.float64(0.21666666666666667)],[1],[0],[0],[1.961491207999643],['target'],2,001,2025-09-28_16h49.31.421,Visual Search Experiment,,2025.1.1,None,2025-09-28 16h49.37.936172 +0530,
38,0,38,[np.float64(0.06333333333333334)],[np.float64(-0.125)],[1],[0],[0],[1.7136072920111474],['target'],38,0,38,0,73.0212357499986,,10,73.01383545898716,73.0212357499986,73.0212357499986,0.019683124992297962,74.72748449997744,[np.float64(0.06333333333333334)],[np.float64(-0.125)],[1],[0],[0],[1.7136072920111474],['target'],2,001,2025-09-28_16h49.31.421,Visual Search Experiment,,2025.1.1,None,2025-09-28 16h49.37.936172 +0530,
39,0,39,[np.float64(-0.028333333333333332)],[np.float64(0.44333333333333336)],[1],[0],[0],[2.9982338749978226],['target'],39,0,39,0,74.75295783398906,,10,74.74577237499761,74.75295783398906,74.75295783398906,0.01811920801992528,77.7440649170021,[np.float64(-0.028333333333333332)],[np.float64(0.44333333333333336)],[1],[0],[0],[2.9982338749978226],['target'],2,001,2025-09-28_16h49.31.421,Visual Search Experiment,,2025.1.1,None,2025-09-28 16h49.37.936172 +0530,
40,0,40,[np.float64(-0.37333333333333335)],[np.float64(0.09333333333333334)],[1],[0],[0],[2.8636698340123985],['target'],40,0,40,0,77.7712101249781,,10,77.76361395898857,77.7712101249781,77.7712101249781,0.019376959011424333,80.62732958397828,[np.float64(-0.37333333333333335)],[np.float64(0.09333333333333334)],[1],[0],[0],[2.8636698340123985],['target'],2,001,2025-09-28_16h49.31.421,Visual Search Experiment,,2025.1.1,None,2025-09-28 16h49.37.936172 +0530,
41,0,41,[np.float64(0.33166666666666667)],[np.float64(0.4033333333333333)],[1],[0],[0],[2.614713084010873],['target'],41,0,41,0,80.65385458400124,,10,80.64625479199458,80.65385458400124,80.65385458400124,0.018754832999547943,83.26100804199814,[np.float64(0.33166666666666667)],[np.float64(0.4033333333333333)],[1],[0],[0],[2.614713084010873],['target'],2,001,2025-09-28_16h49.31.421,Visual Search Experiment,,2025.1.1,None,2025-09-28 16h49.37.936172 +0530,
42,0,42,[np.float64(0.25166666666666665)],[np.float64(-0.22833333333333333)],[1],[0],[0],[2.1482673329883255],['target'],42,0,42,0,83.28816383398953,,10,83.28018133397563,83.28816383398953,83.28816383398953,0.0189961249998305,85.42849270897568,[np.float64(0.25166666666666665)],[np.float64(-0.22833333333333333)],[1],[0],[0],[2.1482673329883255],['target'],2,001,2025-09-28_16h49.31.421,Visual Search Experiment,,2025.1.1,None,2025-09-28 16h49.37.936172 +0530,
43,0,43,[np.float64(0.013333333333333334)],[np.float64(-0.26666666666666666)],[1],[0],[0],[1.1701124170213006],['target'],43,0,43,0,85.44678162498167,,5,85.44012237497373,85.44678162498167,85.44678162498167,0.011463917006039992,86.6103012499807,[np.float64(0.013333333333333334)],[np.float64(-0.26666666666666666)],[1],[0],[0],[1.1701124170213006],['target'],2,001,2025-09-28_16h49.31.421,Visual Search Experiment,,2025.1.1,None,2025-09-28 16h49.37.936172 +0530,
44,0,44,[np.float64(-0.02)],[np.float64(0.345)],[1],[0],[0],[1.7043834170035552],['target'],44,0,44,0,86.6298138749844,,5,86.62299379199976,86.6298138749844,86.6298138749844,0.012512208020780236,88.32743341699825,[np.float64(-0.02)],[np.float64(0.345)],[1],[0],[0],[1.7043834170035552],['target'],2,001,2025-09-28_16h49.31.421,Visual Search Experiment,,2025.1.1,None,2025-09-28 16h49.37.936172 +0530,
45,0,45,[np.float64(-0.37833333333333335)],[np.float64(-0.24666666666666667)],[1],[0],[0],[2.363442582980497],['target'],45,0,45,0,88.35626124998089,,10,88.34779837497626,88.35626124998089,88.35626124998089,0.020187791989883408,90.7112782089971,[np.float64(-0.37833333333333335)],[np.float64(-0.24666666666666667)],[1],[0],[0],[2.363442582980497],['target'],2,001,2025-09-28_16h49.31.421,Visual Search Experiment,,2025.1.1,None,2025-09-28 16h49.37.936172 +0530,
46,0,46,[np.float64(-0.03833333333333333)],[np.float64(0.4066666666666667)],[1],[0],[0],[2.3138728750054725],['target'],46,0,46,0,90.7390853339748,,10,90.73059424999519,90.7390853339748,90.7390853339748,0.019152791006490588,93.04451887498726,[np.float64(-0.03833333333333333)],[np.float64(0.4066666666666667)],[1],[0],[0],[2.3138728750054725],['target'],2,001,2025-09-28_16h49.31.421,Visual Search Experiment,,2025.1.1,None,2025-09-28 16h49.37.936172 +0530,
47,0,47,[np.float64(-0.20166666666666666)],[np.float64(0.22)],[1],[0],[0],[1.0559910409792792],['target'],47,0,47,0,93.0610617089842,,5,93.05477391698514,93.0610617089842,93.0610617089842,0.010080457985168323,94.1108221669856,[np.float64(-0.20166666666666666)],[np.float64(0.22)],[1],[0],[0],[1.0559910409792792],['target'],2,001,2025-09-28_16h49.31.421,Visual Search Experiment,,2025.1.1,None,2025-09-28 16h49.37.936172 +0530,
48,0,48,[np.float64(0.03)],[np.float64(-0.25166666666666665)],[1],[0],[0],[1.75622954100254],['target'],48,0,48,0,94.1396425839921,,10,94.13131866700132,94.1396425839921,94.1396425839921,0.020316541980719194,95.88761454197811,[np.float64(0.03)],[np.float64(-0.25166666666666665)],[1],[0],[0],[1.75622954100254],['target'],2,001,2025-09-28_16h49.31.421,Visual Search Experiment,,2025.1.1,None,2025-09-28 16h49.37.936172 +0530,
49,0,49,[np.float64(-0.24666666666666667)],[np.float64(0.08666666666666667)],[1],[0],[0],[1.574146250000922],['target'],49,0,49,0,95.90955954199308,,10,95.90300237498013,95.90955954199308,95.90955954199308,0.015251958015142009,97.47719787497772,[np.float64(-0.24666666666666667)],[np.float64(0.08666666666666667)],[1],[0],[0],[1.574146250000922],['target'],2,001,2025-09-28_16h49.31.421,Visual Search Experiment,,2025.1.1,None,2025-09-28 16h49.37.936172 +0530,
50,0,50,[np.float64(-0.11833333333333333)],[np.float64(0.17333333333333334)],[1],[0],[0],[1.408459166996181],['target'],50,0,50,0,97.49400358399726,,5,97.48769816698041,97.49400358399726,97.49400358399726,0.010319875000277534,98.8962246250012,[np.float64(-0.11833333333333333)],[np.float64(0.17333333333333334)],[1],[0],[0],[1.408459166996181],['target'],2,001,2025-09-28_16h49.31.421,Visual Search Experiment,,2025.1.1,None,2025-09-28 16h49.37.936172 +0530,
51,0,51,[np.float64(0.2966666666666667)],[np.float64(0.056666666666666664)],[1],[0],[0],[2.9419969170121476],['target'],51,0,51,0,98.92813183399267,,10,98.91886345899547,98.92813183399267,98.92813183399267,0.02246987499529496,101.86090441700071,[np.float64(0.2966666666666667)],[np.float64(0.056666666666666664)],[1],[0],[0],[2.9419969170121476],['target'],2,001,2025-09-28_16h49.31.421,Visual Search Experiment,,2025.1.1,None,2025-09-28 16h49.37.936172 +0530,
52,0,52,[np.float64(-0.36)],[np.float64(0.42833333333333334)],[1],[0],[0],[2.2895030830113683],['target'],52,0,52,0,101.87877258399385,,5,101.8722335420025,101.87877258399385,101.87877258399385,0.011157959001138806,104.16179512499366,[np.float64(-0.36)],[np.float64(0.42833333333333334)],[1],[0],[0],[2.2895030830113683],['target'],2,001,2025-09-28_16h49.31.421,Visual Search Experiment,,2025.1.1,None,2025-09-28 16h49.37.936172 +0530,
53,0,53,[np.float64(0.16333333333333333)],[np.float64(0.08)],[1],[0],[0],[1.7269322089850903],['target'],53,0,53,0,104.1930783749849,,10,104.1839717089897,104.1930783749849,104.1930783749849,0.022012041008565575,105.91094333399087,[np.float64(0.16333333333333333)],[np.float64(0.08)],[1],[0],[0],[1.7269322089850903],['target'],2,001,2025-09-28_16h49.31.421,Visual Search Experiment,,2025.1.1,None,2025-09-28 16h49.37.936172 +0530,
54,0,54,[np.float64(-0.09333333333333334)],[np.float64(-0.115)],[1],[0],[0],[2.3485282089968678],['target'],54,0,54,0,105.93683120899368,,10,105.92898224998498,105.93683120899368,105.93683120899368,0.017867708986159414,108.27755041699857,[np.float64(-0.09333333333333334)],[np.float64(-0.115)],[1],[0],[0],[2.3485282089968678],['target'],2,001,2025-09-28_16h49.31.421,Visual Search Experiment,,2025.1.1,None,2025-09-28 16h49.37.936172 +0530,
55,0,55,[np.float64(-0.47333333333333333)],[np.float64(0.225)],[1],[0],[0],[2.165659125021193],['target'],55,0,55,0,108.3031237499963,,10,108.29575533399475,108.3031237499963,108.3031237499963,0.018053124978905544,110.46145758399507,[np.float64(-0.47333333333333333)],[np.float64(0.225)],[1],[0],[0],[2.165659125021193],['target'],2,001,2025-09-28_16h49.31.421,Visual Search Experiment,,2025.1.1,None,2025-09-28 16h49.37.936172 +0530,
56,0,56,[np.float64(-0.22666666666666666)],[np.float64(0.31666666666666665)],[1],[0],[0],[1.2477649170032237],['target'],56,0,56,0,110.48805383397848,,10,110.48045212498982,110.48805383397848,110.48805383397848,0.018831499997759238,111.72826237499248,[np.float64(-0.22666666666666666)],[np.float64(0.31666666666666665)],[1],[0],[0],[1.2477649170032237],['target'],2,001,2025-09-28_16h49.31.421,Visual Search Experiment,,2025.1.1,None,2025-09-28 16h49.37.936172 +0530,
57,0,57,[np.float64(0.17)],[np.float64(-0.215)],[1],[0],[0],[1.5633740419871174],['target'],57,0,57,0,111.75472987498506,,10,111.74736320899683,111.75472987498506,111.75472987498506,0.018939250003313646,113.31078708398854,[np.float64(0.17)],[np.float64(-0.215)],[1],[0],[0],[1.5633740419871174],['target'],2,001,2025-09-28_16h49.31.421,Visual Search Experiment,,2025.1.1,None,2025-09-28 16h49.37.936172 +0530,
58,0,58,[np.float64(-0.17833333333333334)],[np.float64(0.051666666666666666)],[1],[0],[0],[1.7151222919928841],['target'],58,0,58,0,113.33633291698061,,10,113.32906704198103,113.33633291698061,113.33633291698061,0.018111374985892326,115.04423037500237,[np.float64(-0.17833333333333334)],[np.float64(0.051666666666666666)],[1],[0],[0],[1.7151222919928841],['target'],2,001,2025-09-28_16h49.31.421,Visual Search Experiment,,2025.1.1,None,2025-09-28 16h49.37.936172 +0530,
59,0,59,[np.float64(0.22833333333333333)],[np.float64(0.04666666666666667)],[1],[0],[0],[1.9983064589905553],['target'],59,0,59,0,115.07116537497495,,10,115.06336824997561,115.07116537497495,115.07116537497495,0.018968582997331396,117.06171754197567,[np.float64(0.22833333333333333)],[np.float64(0.04666666666666667)],[1],[0],[0],[1.9983064589905553],['target'],2,001,2025-09-28_16h49.31.421,Visual Search Experiment,,2025.1.1,None,2025-09-28 16h49.37.936172 +0530,
60,0,60,[np.float64(0.465)],[np.float64(0.043333333333333335)],[1],[0],[0],[1.954665124998428],['target'],60,0,60,0,117.07952266698703,,5,117.07289137499174,117.07952266698703,117.07952266698703,0.011012500006472692,119.02761962497607,[np.float64(0.465)],[np.float64(0.043333333333333335)],[1],[0],[0],[1.954665124998428],['target'],2,001,2025-09-28_16h49.31.421,Visual Search Experiment,,2025.1.1,None,2025-09-28 16h49.37.936172 +0530,
61,0,61,[np.float64(-0.42)],[np.float64(0.34833333333333333)],[1],[0],[0],[2.3619008749956265],['target'],61,0,61,0,119.05739545897814,,10,119.04872116699698,119.05739545897814,119.05739545897814,0.020913957996526733,121.41066458399291,[np.float64(-0.42)],[np.float64(0.34833333333333333)],[1],[0],[0],[2.3619008749956265],['target'],2,001,2025-09-28_16h49.31.421,Visual Search Experiment,,2025.1.1,None,2025-09-28 16h49.37.936172 +0530,
62,0,62,[np.float64(-0.015)],[np.float64(0.06333333333333334)],[1],[0],[0],[2.315576291002799],['target'],62,0,62,0,121.43631191700115,,10,121.4292079169827,121.43631191700115,121.43631191700115,0.0183725829992909,123.74482554200222,[np.float64(-0.015)],[np.float64(0.06333333333333334)],[1],[0],[0],[2.315576291002799],['target'],2,001,2025-09-28_16h49.31.421,Visual Search Experiment,,2025.1.1,None,2025-09-28 16h49.37.936172 +0530,
63,0,63,[np.float64(-0.035)],[np.float64(0.485)],[1],[0],[0],[3.34684399998514],['target'],63,0,63,0,123.77222645899747,,10,123.76442570899962,123.77222645899747,123.77222645899747,0.01944320899201557,127.11131354200188,[np.float64(-0.035)],[np.float64(0.485)],[1],[0],[0],[3.34684399998514],['target'],2,001,2025-09-28_16h49.31.421,Visual Search Experiment,,2025.1.1,None,2025-09-28 16h49.37.936172 +0530,
64,0,64,[np.float64(0.30833333333333335)],[np.float64(0.27)],[1],[0],[0],[1.48185883401311],['target'],64,0,64,0,127.13685849998728,,10,127.12931299998309,127.13685849998728,127.13685849998728,0.017835832986747846,128.61121674999595,[np.float64(0.30833333333333335)],[np.float64(0.27)],[1],[0],[0],[1.48185883401311],['target'],2,001,2025-09-28_16h49.31.421,Visual Search Experiment,,2025.1.1,None,2025-09-28 16h49.37.936172 +0530,
65,0,65,[np.float64(0.46166666666666667)],[np.float64(-0.16)],[1],[0],[0],[1.9739811249892227],['target'],65,0,65,0,128.6290651249874,,5,128.62256479199277,128.6290651249874,128.6290651249874,0.011173083010362461,130.59660987497773,[np.float64(0.46166666666666667)],[np.float64(-0.16)],[1],[0],[0],[1.9739811249892227],['target'],2,001,2025-09-28_16h49.31.421,Visual Search Experiment,,2025.1.1,None,2025-09-28 16h49.37.936172 +0530,
66,0,66,[np.float64(0.43166666666666664)],[np.float64(0.40166666666666667)],[1],[0],[0],[1.850660333991982],['target'],66,0,66,0,130.616613124992,,5,130.60963016698952,130.616613124992,130.616613124992,0.012851334002334625,132.46035449998453,[np.float64(0.43166666666666664)],[np.float64(0.40166666666666667)],[1],[0],[0],[1.850660333991982],['target'],2,001,2025-09-28_16h49.31.421,Visual Search Experiment,,2025.1.1,None,2025-09-28 16h49.37.936172 +0530,
67,0,67,[np.float64(0.006666666666666667)],[np.float64(-0.006666666666666667)],[1],[0],[0],[3.811534334003227],['target'],67,0,67,0,132.4911115419818,,10,132.4823976669868,132.4911115419818,132.4911115419818,0.021860167005797848,136.29397416699794,[np.float64(0.006666666666666667)],[np.float64(-0.006666666666666667)],[1],[0],[0],[3.811534334003227],['target'],2,001,2025-09-28_16h49.31.421,Visual Search Experiment,,2025.1.1,None,2025-09-28 16h49.37.936172 +0530,
68,0,68,[np.float64(-0.5016666666666667)],[np.float64(-0.06333333333333334)],[1],[0],[0],[3.064569832989946],['target'],68,0,68,0,136.32101249997504,,10,136.31314645899693,136.32101249997504,136.32101249997504,0.019004166999366134,139.3777611249825,[np.float64(-0.5016666666666667)],[np.float64(-0.06333333333333334)],[1],[0],[0],[3.064569832989946],['target'],2,001,2025-09-28_16h49.31.421,Visual Search Experiment,,2025.1.1,None,2025-09-28 16h49.37.936172 +0530,
69,0,69,[np.float64(0.14166666666666666)],[np.float64(0.043333333333333335)],[1],[0],[0],[1.0144711660104804],['target'],69,0,69,0,139.40421304199845,,10,139.3967162919871,139.40421304199845,139.40421304199845,0.018768291018204764,140.4112317499821,[np.float64(0.14166666666666666)],[np.float64(0.043333333333333335)],[1],[0],[0],[1.0144711660104804],['target'],2,001,2025-09-28_16h49.31.421,Visual Search Experiment,,2025.1.1,None,2025-09-28 16h49.37.936172 +0530,
70,0,70,[np.float64(-0.0016666666666666668)],[np.float64(-0.20166666666666666)],[1],[0],[0],[1.1056902080017608],['target'],70,0,70,0,140.42942470900016,,5,140.42250074999174,140.42942470900016,140.42942470900016,0.01109987500240095,141.52824837499065,[np.float64(-0.0016666666666666668)],[np.float64(-0.20166666666666666)],[1],[0],[0],[1.1056902080017608],['target'],2,001,2025-09-28_16h49.31.421,Visual Search Experiment,,2025.1.1,None,2025-09-28 16h49.37.936172 +0530,
71,0,71,[np.float64(-0.125)],[np.float64(0.47333333333333333)],[1],[0],[0],[1.4038302499975543],['target'],71,0,71,0,141.54648941699998,,5,141.53995812498033,141.54648941699998,141.54648941699998,0.011562792002223432,142.94383483397542,[np.float64(-0.125)],[np.float64(0.47333333333333333)],[1],[0],[0],[1.4038302499975543],['target'],2,001,2025-09-28_16h49.31.421,Visual Search Experiment,,2025.1.1,None,2025-09-28 16h49.37.936172 +0530,
72,0,72,[np.float64(-0.41)],[np.float64(0.4666666666666667)],[1],[0],[0],[1.705850999976974],['target'],72,0,72,0,142.96160487498855,,5,142.95527258398943,142.96160487498855,142.96160487498855,0.011303459003102034,144.66118266698322,[np.float64(-0.41)],[np.float64(0.4666666666666667)],[1],[0],[0],[1.705850999976974],['target'],2,001,2025-09-28_16h49.31.421,Visual Search Experiment,,2025.1.1,None,2025-09-28 16h49.37.936172 +0530,
73,0,73,[np.float64(0.5016666666666667)],[np.float64(-0.33666666666666667)],[1],[0],[0],[3.096025875012856],['target'],73,0,73,0,144.6897764589812,,10,144.68135587498546,144.6897764589812,144.6897764589812,0.020011333021102473,147.77741987499758,[np.float64(0.5016666666666667)],[np.float64(-0.33666666666666667)],[1],[0],[0],[3.096025875012856],['target'],2,001,2025-09-28_16h49.31.421,Visual Search Experiment,,2025.1.1,None,2025-09-28 16h49.37.936172 +0530,
74,0,74,[np.float64(-0.045)],[np.float64(0.16666666666666666)],[1],[0],[0],[2.2645409170072526],['target'],74,0,74,0,147.80371320899576,,10,147.79627016698942,147.80371320899576,147.80371320899576,0.01867462499649264,150.06085791697842,[np.float64(-0.045)],[np.float64(0.16666666666666666)],[1],[0],[0],[2.2645409170072526],['target'],2,001,2025-09-28_16h49.31.421,Visual Search Experiment,,2025.1.1,None,2025-09-28 16h49.37.936172 +0530,
75,0,75,[np.float64(0.36666666666666664)],[np.float64(0.285)],[1],[0],[0],[1.1570660840079654],['target'],75,0,75,0,150.07710987498285,,5,150.07097629198688,150.07710987498285,150.07710987498285,0.009950334002496675,151.22811745898798,[np.float64(0.36666666666666664)],[np.float64(0.285)],[1],[0],[0],[1.1570660840079654],['target'],2,001,2025-09-28_16h49.31.421,Visual Search Experiment,,2025.1.1,None,2025-09-28 16h49.37.936172 +0530,
76,0,76,[np.float64(0.22833333333333333)],[np.float64(0.175)],[1],[0],[0],[1.1286554590042215],['target'],76,0,76,0,151.25748491697595,,10,151.24902166699758,151.25748491697595,151.25748491697595,0.020721208973554894,152.37772595899878,[np.float64(0.22833333333333333)],[np.float64(0.175)],[1],[0],[0],[1.1286554590042215],['target'],2,001,2025-09-28_16h49.31.421,Visual Search Experiment,,2025.1.1,None,2025-09-28 16h49.37.936172 +0530,
77,0,77,[np.float64(0.10666666666666667)],[np.float64(-0.06666666666666667)],[1],[0],[0],[1.007492959004594],['target'],77,0,77,0,152.39516066698707,,5,152.38872679197812,152.39516066698707,152.39516066698707,0.01084266699035652,153.39628616700065,[np.float64(0.10666666666666667)],[np.float64(-0.06666666666666667)],[1],[0],[0],[1.007492959004594],['target'],2,001,2025-09-28_16h49.31.421,Visual Search Experiment,,2025.1.1,None,2025-09-28 16h49.37.936172 +0530,
78,0,78,[np.float64(0.28)],[np.float64(-0.01)],[1],[0],[0],[1.0344124580151401],['target'],78,0,78,0,153.41626999998698,,5,153.4093360839761,153.41626999998698,153.41626999998698,0.012882249982794747,154.44379366698558,[np.float64(0.28)],[np.float64(-0.01)],[1],[0],[0],[1.0344124580151401],['target'],2,001,2025-09-28_16h49.31.421,Visual Search Experiment,,2025.1.1,None,2025-09-28 16h49.37.936172 +0530,
79,0,79,[np.float64(0.44166666666666665)],[np.float64(0.07166666666666667)],[1],[0],[0],[1.2727155000029597],['target'],79,0,79,0,154.4619991669897,,5,154.45558604199323,154.4619991669897,154.4619991669897,0.011654125002678484,155.72835874999873,[np.float64(0.44166666666666665)],[np.float64(0.07166666666666667)],[1],[0],[0],[1.2727155000029597],['target'],2,001,2025-09-28_16h49.31.421,Visual Search Experiment,,2025.1.1,None,2025-09-28 16h49.37.936172 +0530,
80,0,80,[np.float64(0.1)],[np.float64(-0.4266666666666667)],[1],[0],[0],[4.96118766698055],['target'],80,0,80,0,155.75827370898332,,10,155.749566124985,155.75827370898332,155.75827370898332,0.0210376670002006,160.71080933397752,[np.float64(0.1)],[np.float64(-0.4266666666666667)],[1],[0],[0],[4.96118766698055],['target'],2,001,2025-09-28_16h49.31.421,Visual Search Experiment,,2025.1.1,None,2025-09-28 16h49.37.936172 +0530,
81,0,81,[np.float64(0.255)],[np.float64(0.125)],[1],[0],[0],[1.397913458000403],['target'],81,0,81,0,160.73755504199653,,10,160.72971158399014,160.73755504199653,160.73755504199653,0.018727457994828,162.12767012498807,[np.float64(0.255)],[np.float64(0.125)],[1],[0],[0],[1.397913458000403],['target'],2,001,2025-09-28_16h49.31.421,Visual Search Experiment,,2025.1.1,None,2025-09-28 16h49.37.936172 +0530,
82,0,82,[np.float64(-0.08833333333333333)],[np.float64(0.315)],[1],[0],[0],[1.131232166022528],['target'],82,0,82,0,162.15357558400137,,10,162.14628779198392,162.15357558400137,162.15357558400137,0.018448457994963974,163.27756587497424,[np.float64(-0.08833333333333333)],[np.float64(0.315)],[1],[0],[0],[1.131232166022528],['target'],2,001,2025-09-28_16h49.31.421,Visual Search Experiment,,2025.1.1,None,2025-09-28 16h49.37.936172 +0530,
83,0,83,[np.float64(-0.33666666666666667)],[np.float64(-0.021666666666666667)],[1],[0],[0],[1.2397080829832703],['target'],83,0,83,0,163.29414395897766,,5,163.28768162499182,163.29414395897766,163.29414395897766,0.009947707992978394,164.52745129200048,[np.float64(-0.33666666666666667)],[np.float64(-0.021666666666666667)],[1],[0],[0],[1.2397080829832703],['target'],2,001,2025-09-28_16h49.31.421,Visual Search Experiment,,2025.1.1,None,2025-09-28 16h49.37.936172 +0530,
84,0,84,[np.float64(-0.14833333333333334)],[np.float64(-0.48833333333333334)],[1],[0],[0],[2.3624149579845835],['target'],84,0,84,0,164.55644224997377,,10,164.54799262498273,164.55644224997377,164.55644224997377,0.020368666999274865,166.910441333981,[np.float64(-0.14833333333333334)],[np.float64(-0.48833333333333334)],[1],[0],[0],[2.3624149579845835],['target'],2,001,2025-09-28_16h49.31.421,Visual Search Experiment,,2025.1.1,None,2025-09-28 16h49.37.936172 +0530,
85,0,85,[np.float64(-0.07833333333333334)],[np.float64(0.03666666666666667)],[1],[0],[0],[1.3652959580067545],['target'],85,0,85,0,166.9359620839823,,10,166.9282809169963,166.9359620839823,166.9359620839823,0.01769533401238732,168.29361645897734,[np.float64(-0.07833333333333334)],[np.float64(0.03666666666666667)],[1],[0],[0],[1.3652959580067545],['target'],2,001,2025-09-28_16h49.31.421,Visual Search Experiment,,2025.1.1,None,2025-09-28 16h49.37.936172 +0530,
86,0,86,[np.float64(0.2783333333333333)],[np.float64(-0.16333333333333333)],[1],[0],[0],[1.224708041001577],['target'],86,0,86,0,168.31006379198516,,5,168.30359691698686,168.31006379198516,168.31006379198516,0.009836041019298136,169.5283659589768,[np.float64(0.2783333333333333)],[np.float64(-0.16333333333333333)],[1],[0],[0],[1.224708041001577],['target'],2,001,2025-09-28_16h49.31.421,Visual Search Experiment,,2025.1.1,None,2025-09-28 16h49.37.936172 +0530,
87,0,87,[np.float64(-0.445)],[np.float64(0.25833333333333336)],[1],[0],[0],[2.045731624995824],['target'],87,0,87,0,169.55720687497524,,10,169.54850295899087,169.55720687497524,169.55720687497524,0.019977707997895777,171.59427416700055,[np.float64(-0.445)],[np.float64(0.25833333333333336)],[1],[0],[0],[2.045731624995824],['target'],2,001,2025-09-28_16h49.31.421,Visual Search Experiment,,2025.1.1,None,2025-09-28 16h49.37.936172 +0530,
88,0,88,[np.float64(-0.0016666666666666668)],[np.float64(0.35)],[1],[0],[0],[1.1818016249744687],['target'],88,0,88,0,171.62042870899313,,10,171.61281270897598,171.62042870899313,171.62042870899313,0.018373957980656996,172.7947336669895,[np.float64(-0.0016666666666666668)],[np.float64(0.35)],[1],[0],[0],[1.1818016249744687],['target'],2,001,2025-09-28_16h49.31.421,Visual Search Experiment,,2025.1.1,None,2025-09-28 16h49.37.936172 +0530,
89,0,89,[np.float64(0.47833333333333333)],[np.float64(0.011666666666666667)],[1],[0],[0],[2.071585874975426],['target'],89,0,89,0,172.81147758397856,,5,172.80511737498455,172.81147758397856,172.81147758397856,0.010211875021923333,174.87675716698868,[np.float64(0.47833333333333333)],[np.float64(0.011666666666666667)],[1],[0],[0],[2.071585874975426],['target'],2,001,2025-09-28_16h49.31.421,Visual Search Experiment,,2025.1.1,None,2025-09-28 16h49.37.936172 +0530,
90,0,90,[np.float64(-0.07333333333333333)],[np.float64(0.295)],[1],[0],[0],[1.322459708986571],['target'],90,0,90,0,174.894315499987,,5,174.8879194999754,174.894315499987,174.894315499987,0.011007249995600432,176.2104409589956,[np.float64(-0.07333333333333333)],[np.float64(0.295)],[1],[0],[0],[1.322459708986571],['target'],2,001,2025-09-28_16h49.31.421,Visual Search Experiment,,2025.1.1,None,2025-09-28 16h49.37.936172 +0530,
91,0,91,[np.float64(-0.175)],[np.float64(-0.22833333333333333)],[1],[0],[0],[1.995914666011231],['target'],91,0,91,0,176.23938225000165,,10,176.2310534999997,176.23938225000165,176.23938225000165,0.020449542003916577,178.2270007499901,[np.float64(-0.175)],[np.float64(-0.22833333333333333)],[1],[0],[0],[1.995914666011231],['target'],2,001,2025-09-28_16h49.31.421,Visual Search Experiment,,2025.1.1,None,2025-09-28 16h49.37.936172 +0530,
92,0,92,[np.float64(-0.011666666666666667)],[np.float64(-0.22833333333333333)],[1],[0],[0],[1.1570223749731667],['target'],92,0,92,0,178.24362820899114,,5,178.23696941699018,178.24362820899114,178.24362820899114,0.009824792010476813,179.394058166974,[np.float64(-0.011666666666666667)],[np.float64(-0.22833333333333333)],[1],[0],[0],[1.1570223749731667],['target'],2,001,2025-09-28_16h49.31.421,Visual Search Experiment,,2025.1.1,None,2025-09-28 16h49.37.936172 +0530,
93,0,93,[np.float64(-0.2833333333333333)],[np.float64(0.06833333333333333)],[1],[0],[0],[1.1717062919924501],['target'],93,0,93,0,179.4124094589788,,5,179.405522999994,179.4124094589788,179.4124094589788,0.011287083005299792,180.5772562919883,[np.float64(-0.2833333333333333)],[np.float64(0.06833333333333333)],[1],[0],[0],[1.1717062919924501],['target'],2,001,2025-09-28_16h49.31.421,Visual Search Experiment,,2025.1.1,None,2025-09-28 16h49.37.936172 +0530,
94,0,94,[np.float64(-0.395)],[np.float64(0.27666666666666667)],[1],[0],[0],[1.197718250012258],['target'],94,0,94,0,180.60502724998514,,10,180.59682395900018,180.60502724998514,180.60502724998514,0.019431291992077604,181.79458170899306,[np.float64(-0.395)],[np.float64(0.27666666666666667)],[1],[0],[0],[1.197718250012258],['target'],2,001,2025-09-28_16h49.31.421,Visual Search Experiment,,2025.1.1,None,2025-09-28 16h49.37.936172 +0530,
95,0,95,[np.float64(-0.175)],[np.float64(0.29833333333333334)],[1],[0],[0],[1.0389167079993058],['target'],95,0,95,0,181.81200624999474,,5,181.80546174998744,181.81200624999474,181.81200624999474,0.01072170800762251,182.84444037498906,[np.float64(-0.175)],[np.float64(0.29833333333333334)],[1],[0],[0],[1.0389167079993058],['target'],2,001,2025-09-28_16h49.31.421,Visual Search Experiment,,2025.1.1,None,2025-09-28 16h49.37.936172 +0530,
96,0,96,[np.float64(-0.36)],[np.float64(0.29833333333333334)],[1],[0],[0],[1.0534371669928078],['target'],96,0,96,0,182.8641211669892,,5,182.85684595900238,182.8641211669892,182.8641211669892,0.012238333001732826,183.91035320897936,[np.float64(-0.36)],[np.float64(0.29833333333333334)],[1],[0],[0],[1.0534371669928078],['target'],2,001,2025-09-28_16h49.31.421,Visual Search Experiment,,2025.1.1,None,2025-09-28 16h49.37.936172 +0530,
97,0,97,[np.float64(-0.4166666666666667)],[np.float64(0.48333333333333334)],[1],[0],[0],[1.5625665419793222],['target'],97,0,97,0,183.9394080839993,,10,183.93049695898662,183.9394080839993,183.9394080839993,0.019976250012405217,185.49309674999677,[np.float64(-0.4166666666666667)],[np.float64(0.48333333333333334)],[1],[0],[0],[1.5625665419793222],['target'],2,001,2025-09-28_16h49.31.421,Visual Search Experiment,,2025.1.1,None,2025-09-28 16h49.37.936172 +0530,
98,0,98,[np.float64(0.21)],[np.float64(0.43)],[1],[0],[0],[2.0673370830190834],['target'],98,0,98,0,185.51705758398748,,10,185.5100981669966,185.51705758398748,185.51705758398748,0.01684804100659676,187.57747120899148,[np.float64(0.21)],[np.float64(0.43)],[1],[0],[0],[2.0673370830190834],['target'],2,001,2025-09-28_16h49.31.421,Visual Search Experiment,,2025.1.1,None,2025-09-28 16h49.37.936172 +0530,
99,0,99,[np.float64(0.15833333333333333)],[np.float64(0.4)],[1],[0],[0],[1.2658107919851318],['target'],99,0,99,0,187.60276720899856,,10,187.5953367089969,187.60276720899856,187.60276720899856,0.017731291998643428,188.86119137497735,[np.float64(0.15833333333333333)],[np.float64(0.4)],[1],[0],[0],[1.2658107919851318],['target'],2,001,2025-09-28_16h49.31.421,Visual Search Experiment,,2025.1.1,None,2025-09-28 16h49.37.936172 +0530,
100,0,100,[np.float64(0.3)],[np.float64(-0.39166666666666666)],[1],[0],[0],[2.1217972500016913],['target'],100,0,100,0,188.87875116697978,,5,188.87218649999704,188.87875116697978,188.87875116697978,0.010838416987098753,190.99403933397844,[np.float64(0.3)],[np.float64(-0.39166666666666666)],[1],[0],[0],[2.1217972500016913],['target'],2,001,2025-09-28_16h49.31.421,Visual Search Experiment,,2025.1.1,None,2025-09-28 16h49.37.936172 +0530,
101,0,101,[np.float64(0.21833333333333332)],[np.float64(0.08166666666666667)],[1],[0],[0],[1.2717377500084694],['target'],101,0,101,0,191.0121105419821,,5,191.0053785420023,191.0121105419821,191.0121105419821,0.011195625003892928,192.2771727090003,[np.float64(0.21833333333333332)],[np.float64(0.08166666666666667)],[1],[0],[0],[1.2717377500084694],['target'],2,001,2025-09-28_16h49.31.421,Visual Search Experiment,,2025.1.1,None,2025-09-28 16h49.37.936172 +0530,
102,0,102,[np.float64(-0.12166666666666667)],[np.float64(-0.03)],[1],[0],[0],[1.704997207998531],['target'],102,0,102,0,192.29594933398766,,5,192.28901204199065,192.29594933398766,192.29594933398766,0.011678167007630691,193.99405779197696,[np.float64(-0.12166666666666667)],[np.float64(-0.03)],[1],[0],[0],[1.704997207998531],['target'],2,001,2025-09-28_16h49.31.421,Visual Search Experiment,,2025.1.1,None,2025-09-28 16h49.37.936172 +0530,
103,0,103,[np.float64(-0.4583333333333333)],[np.float64(-0.245)],[1],[0],[0],[1.3880498750077095],['target'],103,0,103,0,194.01255133398809,,5,194.00561345898313,194.01255133398809,194.01255133398809,0.01141466700937599,195.3937203749956,[np.float64(-0.4583333333333333)],[np.float64(-0.245)],[1],[0],[0],[1.3880498750077095],['target'],2,001,2025-09-28_16h49.31.421,Visual Search Experiment,,2025.1.1,None,2025-09-28 16h49.37.936172 +0530,
104,0,104,[np.float64(-0.165)],[np.float64(-0.28833333333333333)],[1],[0],[0],[1.1119220840046182],['target'],104,0,104,0,195.4241949999996,,10,195.41533299998264,195.4241949999996,195.4241949999996,0.021430374996270984,196.5272926669859,[np.float64(-0.165)],[np.float64(-0.28833333333333333)],[1],[0],[0],[1.1119220840046182],['target'],2,001,2025-09-28_16h49.31.421,Visual Search Experiment,,2025.1.1,None,2025-09-28 16h49.37.936172 +0530,
105,0,105,[np.float64(0.245)],[np.float64(0.25666666666666665)],[1],[0],[0],[1.923757165990537],['target'],105,0,105,0,196.5441837089893,,5,196.53779483397375,196.5441837089893,196.5441837089893,0.010345582995796576,198.46162591699976,[np.float64(0.245)],[np.float64(0.25666666666666665)],[1],[0],[0],[1.923757165990537],['target'],2,001,2025-09-28_16h49.31.421,Visual Search Experiment,,2025.1.1,None,2025-09-28 16h49.37.936172 +0530,
106,0,106,[np.float64(-0.175)],[np.float64(0.0)],[1],[0],[0],[1.5858022500178777],['target'],106,0,106,0,198.48164158398868,,5,198.47453325000242,198.48164158398868,198.48164158398868,0.012736292002955452,200.0603872499778,[np.float64(-0.175)],[np.float64(0.0)],[1],[0],[0],[1.5858022500178777],['target'],2,001,2025-09-28_16h49.31.421,Visual Search Experiment,,2025.1.1,None,2025-09-28 16h49.37.936172 +0530,
107,0,107,[np.float64(-0.26)],[np.float64(-0.225)],[1],[0],[0],[1.138091250002617],['target'],107,0,107,0,200.07832820899785,,5,200.07161937499768,200.07832820899785,200.07832820899785,0.011091708001913503,201.20976045899442,[np.float64(-0.26)],[np.float64(-0.225)],[1],[0],[0],[1.138091250002617],['target'],2,001,2025-09-28_16h49.31.421,Visual Search Experiment,,2025.1.1,None,2025-09-28 16h49.37.936172 +0530,
108,0,108,[np.float64(0.14666666666666667)],[np.float64(0.255)],[1],[0],[0],[1.5222226670011878],['target'],108,0,108,0,201.22797966699,,5,201.22098762498354,201.22797966699,201.22797966699,0.011094249988673255,202.7432741249795,[np.float64(0.14666666666666667)],[np.float64(0.255)],[1],[0],[0],[1.5222226670011878],['target'],2,001,2025-09-28_16h49.31.421,Visual Search Experiment,,2025.1.1,None,2025-09-28 16h49.37.936172 +0530,
109,0,109,[np.float64(-0.4633333333333333)],[np.float64(-0.475)],[1],[0],[0],[1.9235170409956481],['target'],109,0,109,0,202.76079454200226,,5,202.75422929198248,202.76079454200226,202.76079454200226,0.010814749985001981,204.677808583976,[np.float64(-0.4633333333333333)],[np.float64(-0.475)],[1],[0],[0],[1.9235170409956481],['target'],2,001,2025-09-28_16h49.31.421,Visual Search Experiment,,2025.1.1,None,2025-09-28 16h49.37.936172 +0530,
110,0,110,[np.float64(0.2783333333333333)],[np.float64(0.15333333333333332)],[1],[0],[0],[1.2382906249840744],['target'],110,0,110,0,204.69660737499362,,5,204.68948270898545,204.69660737499362,204.69660737499362,0.01152175001334399,205.92782654199982,[np.float64(0.2783333333333333)],[np.float64(0.15333333333333332)],[1],[0],[0],[1.2382906249840744],['target'],2,001,2025-09-28_16h49.31.421,Visual Search Experiment,,2025.1.1,None,2025-09-28 16h49.37.936172 +0530,
111,0,111,[np.float64(-0.235)],[np.float64(-0.36)],[1],[0],[0],[1.4869200410030317],['target'],111,0,111,0,205.94633924998925,,5,205.9397945839737,205.94633924998925,205.94633924998925,0.01183050000690855,207.42677849999745,[np.float64(-0.235)],[np.float64(-0.36)],[1],[0],[0],[1.4869200410030317],['target'],2,001,2025-09-28_16h49.31.421,Visual Search Experiment,,2025.1.1,None,2025-09-28 16h49.37.936172 +0530,
112,0,112,[np.float64(0.42333333333333334)],[np.float64(-0.13333333333333333)],[1],[0],[0],[1.462186999997357],['target'],112,0,112,0,207.45708966697566,,10,207.44832495899755,207.45708966697566,207.45708966697566,0.021369708993006498,208.91054308399907,[np.float64(0.42333333333333334)],[np.float64(-0.13333333333333333)],[1],[0],[0],[1.462186999997357],['target'],2,001,2025-09-28_16h49.31.421,Visual Search Experiment,,2025.1.1,None,2025-09-28 16h49.37.936172 +0530,
113,0,113,[np.float64(0.19166666666666668)],[np.float64(-0.4)],[1],[0],[0],[1.8088857090042438],['target'],113,0,113,0,208.9270073339867,,5,208.9205223339959,208.9270073339867,208.9270073339867,0.009840708982665092,210.72947020898573,[np.float64(0.19166666666666668)],[np.float64(-0.4)],[1],[0],[0],[1.8088857090042438],['target'],2,001,2025-09-28_16h49.31.421,Visual Search Experiment,,2025.1.1,None,2025-09-28 16h49.37.936172 +0530,
114,0,114,[np.float64(0.235)],[np.float64(-0.295)],[1],[0],[0],[0.7853142920066603],['target'],114,0,114,0,210.7489140839898,,5,210.74188679197687,210.7489140839898,210.7489140839898,0.01223508402472362,211.52725658399868,[np.float64(0.235)],[np.float64(-0.295)],[1],[0],[0],[0.7853142920066603],['target'],2,001,2025-09-28_16h49.31.421,Visual Search Experiment,,2025.1.1,None,2025-09-28 16h49.37.936172 +0530,
115,0,115,[np.float64(-0.15)],[np.float64(-0.06833333333333333)],[1],[0],[0],[1.4962368750129826],['target'],115,0,115,0,211.55593720899196,,10,211.54786004198832,211.55593720899196,211.55593720899196,0.02043912501540035,213.04413670898066,[np.float64(-0.15)],[np.float64(-0.06833333333333333)],[1],[0],[0],[1.4962368750129826],['target'],2,001,2025-09-28_16h49.31.421,Visual Search Experiment,,2025.1.1,None,2025-09-28 16h49.37.936172 +0530,
116,0,116,[np.float64(0.295)],[np.float64(-0.18833333333333332)],[1],[0],[0],[1.5141614169988316],['target'],116,0,116,0,213.07011837497703,,10,213.0628056669957,213.07011837497703,213.07011837497703,0.018513749993871897,214.57700462499633,[np.float64(0.295)],[np.float64(-0.18833333333333332)],[1],[0],[0],[1.5141614169988316],['target'],2,001,2025-09-28_16h49.31.421,Visual Search Experiment,,2025.1.1,None,2025-09-28 16h49.37.936172 +0530,
117,0,117,[np.float64(-0.485)],[np.float64(0.34)],[1],[0],[0],[2.5168253750016447],['target'],117,0,117,0,214.60110670898575,,10,214.59419599999092,214.60110670898575,214.60110670898575,0.017054083989933133,217.11107062498922,[np.float64(-0.485)],[np.float64(0.34)],[1],[0],[0],[2.5168253750016447],['target'],2,001,2025-09-28_16h49.31.421,Visual Search Experiment,,2025.1.1,None,2025-09-28 16h49.37.936172 +0530,
118,0,118,[np.float64(-0.07166666666666667)],[np.float64(0.2783333333333333)],[1],[0],[0],[1.1056297910108697],['target'],118,0,118,0,217.12774595897645,,5,217.12142341697472,217.12774595897645,217.12774595897645,0.010182750003878027,218.22711887498735,[np.float64(-0.07166666666666667)],[np.float64(0.2783333333333333)],[1],[0],[0],[1.1056297910108697],['target'],2,001,2025-09-28_16h49.31.421,Visual Search Experiment,,2025.1.1,None,2025-09-28 16h49.37.936172 +0530,
119,0,119,[np.float64(0.135)],[np.float64(0.39166666666666666)],[1],[0],[0],[1.5382963750162162],['target'],119,0,119,0,218.2458770419762,,5,218.2391192089999,218.2458770419762,218.2458770419762,0.01182662500650622,219.77746724997996,[np.float64(0.135)],[np.float64(0.39166666666666666)],[1],[0],[0],[1.5382963750162162],['target'],2,001,2025-09-28_16h49.31.421,Visual Search Experiment,,2025.1.1,None,2025-09-28 16h49.37.936172 +0530,
120,0,120,[np.float64(0.021666666666666667)],[np.float64(-0.36333333333333334)],[1],[0],[0],[2.279478000011295],['target'],120,0,120,0,219.80571566699655,,10,219.7972539170005,219.80571566699655,219.80571566699655,0.01964824998867698,222.07676054199692,[np.float64(0.021666666666666667)],[np.float64(-0.36333333333333334)],[1],[0],[0],[2.279478000011295],['target'],2,001,2025-09-28_16h49.31.421,Visual Search Experiment,,2025.1.1,None,2025-09-28 16h49.37.936172 +0530,
121,0,121,[np.float64(-0.23)],[np.float64(-0.33166666666666667)],[1],[0],[0],[1.4327774589764886],['target'],121,0,121,0,222.1016720419866,,10,222.094323583995,222.1016720419866,222.1016720419866,0.01743012500810437,223.52713508397574,[np.float64(-0.23)],[np.float64(-0.33166666666666667)],[1],[0],[0],[1.4327774589764886],['target'],2,001,2025-09-28_16h49.31.421,Visual Search Experiment,,2025.1.1,None,2025-09-28 16h49.37.936172 +0530,
122,0,122,[np.float64(-0.0016666666666666668)],[np.float64(0.19333333333333333)],[1],[0],[0],[1.2318995419773273],['target'],122,0,122,0,223.5525355419959,,10,223.5454747089825,223.5525355419959,223.5525355419959,0.01819920798880048,224.77741766697727,[np.float64(-0.0016666666666666668)],[np.float64(0.19333333333333333)],[1],[0],[0],[1.2318995419773273],['target'],2,001,2025-09-28_16h49.31.421,Visual Search Experiment,,2025.1.1,None,2025-09-28 16h49.37.936172 +0530,
123,0,123,[np.float64(-0.12333333333333334)],[np.float64(0.07666666666666666)],[1],[0],[0],[2.8640883330081124],['target'],123,0,123,0,224.80382379199727,,10,224.79607608399238,224.80382379199727,224.80382379199727,0.018469000002369285,227.66020324997953,[np.float64(-0.12333333333333334)],[np.float64(0.07666666666666666)],[1],[0],[0],[2.8640883330081124],['target'],2,001,2025-09-28_16h49.31.421,Visual Search Experiment,,2025.1.1,None,2025-09-28 16h49.37.936172 +0530,
124,0,124,[np.float64(0.11333333333333333)],[np.float64(0.4)],[1],[0],[0],[1.633968833979452],['target'],124,0,124,0,227.6837739170005,,10,227.67700337499264,227.6837739170005,227.6837739170005,0.016660458990372717,229.311021083995,[np.float64(0.11333333333333333)],[np.float64(0.4)],[1],[0],[0],[1.633968833979452],['target'],2,001,2025-09-28_16h49.31.421,Visual Search Experiment,,2025.1.1,None,2025-09-28 16h49.37.936172 +0530,
125,0,125,[np.float64(0.245)],[np.float64(-0.48333333333333334)],[1],[0],[0],[1.9220857920008712],['target'],125,0,125,0,229.32827537498088,,5,229.3217364999873,229.32827537498088,229.32827537498088,0.010543292009970173,231.243885459,[np.float64(0.245)],[np.float64(-0.48333333333333334)],[1],[0],[0],[1.9220857920008712],['target'],2,001,2025-09-28_16h49.31.421,Visual Search Experiment,,2025.1.1,None,2025-09-28 16h49.37.936172 +0530,
126,0,126,[np.float64(-0.25)],[np.float64(0.17166666666666666)],[1],[0],[0],[2.4298919579887297],['target'],126,0,126,0,231.27243708400056,,10,231.26417695899727,231.27243708400056,231.27243708400056,0.020115041988901794,233.69410533399787,[np.float64(-0.25)],[np.float64(0.17166666666666666)],[1],[0],[0],[2.4298919579887297],['target'],2,001,2025-09-28_16h49.31.421,Visual Search Experiment,,2025.1.1,None,2025-09-28 16h49.37.936172 +0530,
127,0,127,[np.float64(0.07)],[np.float64(-0.15166666666666667)],[1],[0],[0],[2.521680792007828],['target'],127,0,127,0,233.71148616698338,,5,233.70528108399594,233.71148616698338,233.71148616698338,0.011020667006960139,236.2270118749875,[np.float64(0.07)],[np.float64(-0.15166666666666667)],[1],[0],[0],[2.521680792007828],['target'],2,001,2025-09-28_16h49.31.421,Visual Search Experiment,,2025.1.1,None,2025-09-28 16h49.37.936172 +0530,
128,0,128,[np.float64(-0.11166666666666666)],[np.float64(0.46166666666666667)],[1],[0],[0],[1.0057157920091413],['target'],128,0,128,0,236.24460604198975,,5,236.23815724998713,236.24460604198975,236.24460604198975,0.011011249996954575,237.24394024998765,[np.float64(-0.11166666666666666)],[np.float64(0.46166666666666667)],[1],[0],[0],[1.0057157920091413],['target'],2,001,2025-09-28_16h49.31.421,Visual Search Experiment,,2025.1.1,None,2025-09-28 16h49.37.936172 +0530,
129,0,129,[np.float64(0.03833333333333333)],[np.float64(0.06666666666666667)],[1],[0],[0],[1.4954974589927588],['target'],129,0,129,0,237.27370141699794,,10,237.26486387499608,237.27370141699794,237.27370141699794,0.02073729198309593,238.76040170897613,[np.float64(0.03833333333333333)],[np.float64(0.06666666666666667)],[1],[0],[0],[1.4954974589927588],['target'],2,001,2025-09-28_16h49.31.421,Visual Search Experiment,,2025.1.1,None,2025-09-28 16h49.37.936172 +0530,
130,0,130,[np.float64(0.2966666666666667)],[np.float64(0.3566666666666667)],[1],[0],[0],[1.7655274580174591],['target'],130,0,130,0,238.78583958398667,,10,238.77855937500135,238.78583958398667,238.78583958398667,0.017995124973822385,240.54413933400065,[np.float64(0.2966666666666667)],[np.float64(0.3566666666666667)],[1],[0],[0],[1.7655274580174591],['target'],2,001,2025-09-28_16h49.31.421,Visual Search Experiment,,2025.1.1,None,2025-09-28 16h49.37.936172 +0530,
131,0,131,[np.float64(0.24833333333333332)],[np.float64(-0.26166666666666666)],[1],[0],[0],[1.7419382920197677],['target'],131,0,131,0,240.56071241697646,,5,240.55413966698688,240.56071241697646,240.56071241697646,0.009838916012085974,242.29614599997876,[np.float64(0.24833333333333332)],[np.float64(-0.26166666666666666)],[1],[0],[0],[1.7419382920197677],['target'],2,001,2025-09-28_16h49.31.421,Visual Search Experiment,,2025.1.1,None,2025-09-28 16h49.37.936172 +0530,
132,0,132,[np.float64(0.3416666666666667)],[np.float64(-0.335)],[1],[0],[0],[2.042761499993503],['target'],132,0,132,0,242.32633308399818,,10,242.3173917499953,242.32633308399818,242.32633308399818,0.021073249983601272,244.3601897089975,[np.float64(0.3416666666666667)],[np.float64(-0.335)],[1],[0],[0],[2.042761499993503],['target'],2,001,2025-09-28_16h49.31.421,Visual Search Experiment,,2025.1.1,None,2025-09-28 16h49.37.936172 +0530,
133,0,133,[np.float64(0.19166666666666668)],[np.float64(-0.09166666666666666)],[1],[0],[0],[1.2567141670151614],['target'],133,0,133,0,244.37680349999573,,5,244.37028991698753,244.37680349999573,244.37680349999573,0.009962583018932492,245.62707179199788,[np.float64(0.19166666666666668)],[np.float64(-0.09166666666666666)],[1],[0],[0],[1.2567141670151614],['target'],2,001,2025-09-28_16h49.31.421,Visual Search Experiment,,2025.1.1,None,2025-09-28 16h49.37.936172 +0530,
134,0,134,[np.float64(0.49)],[np.float64(-0.05333333333333334)],[1],[0],[0],[1.9633247080200817],['target'],134,0,134,0,245.65598624999984,,10,245.64740033398266,245.65598624999984,245.65598624999984,0.02015841699903831,247.61076612499892,[np.float64(0.49)],[np.float64(-0.05333333333333334)],[1],[0],[0],[1.9633247080200817],['target'],2,001,2025-09-28_16h49.31.421,Visual Search Experiment,,2025.1.1,None,2025-09-28 16h49.37.936172 +0530,
135,0,135,[np.float64(0.09666666666666666)],[np.float64(0.21666666666666667)],[1],[0],[0],[1.3545862920000218],['target'],135,0,135,0,247.6288774589775,,5,247.62216970897862,247.6288774589775,247.6288774589775,0.011232709017349407,248.97680962498998,[np.float64(0.09666666666666666)],[np.float64(0.21666666666666667)],[1],[0],[0],[1.3545862920000218],['target'],2,001,2025-09-28_16h49.31.421,Visual Search Experiment,,2025.1.1,None,2025-09-28 16h49.37.936172 +0530,
136,0,136,[np.float64(0.10166666666666667)],[np.float64(-0.43333333333333335)],[1],[0],[0],[3.522654957982013],['target'],136,0,136,0,248.99440908399993,,5,248.98793799997657,248.99440908399993,248.99440908399993,0.010992208000971004,252.5106659999874,[np.float64(0.10166666666666667)],[np.float64(-0.43333333333333335)],[1],[0],[0],[3.522654957982013],['target'],2,001,2025-09-28_16h49.31.421,Visual Search Experiment,,2025.1.1,None,2025-09-28 16h49.37.936172 +0530,
137,0,137,[np.float64(0.46166666666666667)],[np.float64(-0.4166666666666667)],[1],[0],[0],[2.1461727499845438],['target'],137,0,137,0,252.53995570898405,,10,252.530897833989,252.53995570898405,252.53995570898405,0.020072916988283396,254.67711645897361,[np.float64(0.46166666666666667)],[np.float64(-0.4166666666666667)],[1],[0],[0],[2.1461727499845438],['target'],2,001,2025-09-28_16h49.31.421,Visual Search Experiment,,2025.1.1,None,2025-09-28 16h49.37.936172 +0530,
138,0,138,[np.float64(0.18333333333333332)],[np.float64(-0.15833333333333333)],[1],[0],[0],[1.37249849998625],['target'],138,0,138,0,254.6952682089759,,5,254.68863412499195,254.6952682089759,254.6952682089759,0.011337375006405637,256.06119845897774,[np.float64(0.18333333333333332)],[np.float64(-0.15833333333333333)],[1],[0],[0],[1.37249849998625],['target'],2,001,2025-09-28_16h49.31.421,Visual Search Experiment,,2025.1.1,None,2025-09-28 16h49.37.936172 +0530,
139,0,139,[np.float64(0.03166666666666667)],[np.float64(-0.48833333333333334)],[1],[0],[0],[2.703634792007506],['target'],139,0,139,0,256.0810766669747,,5,256.07417483397876,256.0810766669747,256.0810766669747,0.012800833996152505,258.77788366697496,[np.float64(0.03166666666666667)],[np.float64(-0.48833333333333334)],[1],[0],[0],[2.703634792007506],['target'],2,001,2025-09-28_16h49.31.421,Visual Search Experiment,,2025.1.1,None,2025-09-28 16h49.37.936172 +0530,
140,0,140,[np.float64(-0.31333333333333335)],[np.float64(0.46)],[1],[0],[0],[2.0622526250081137],['target'],140,0,140,0,258.8073204999964,,10,258.7986964999873,258.8073204999964,258.8073204999964,0.02062029199441895,260.86098966698046,[np.float64(-0.31333333333333335)],[np.float64(0.46)],[1],[0],[0],[2.0622526250081137],['target'],2,001,2025-09-28_16h49.31.421,Visual Search Experiment,,2025.1.1,None,2025-09-28 16h49.37.936172 +0530,
141,0,141,[np.float64(-0.26666666666666666)],[np.float64(-0.3933333333333333)],[1],[0],[0],[2.397467000002507],['target'],141,0,141,0,260.8870945839735,,10,260.87944424999296,260.8870945839735,260.8870945839735,0.018271291017299518,263.2769473340013,[np.float64(-0.26666666666666666)],[np.float64(-0.3933333333333333)],[1],[0],[0],[2.397467000002507],['target'],2,001,2025-09-28_16h49.31.421,Visual Search Experiment,,2025.1.1,None,2025-09-28 16h49.37.936172 +0530,
142,0,142,[np.float64(0.25333333333333335)],[np.float64(0.085)],[1],[0],[0],[1.8827796249825042],['target'],142,0,142,0,263.30219833398587,,10,263.29480445900117,263.30219833398587,263.30219833398587,0.01772091697785072,265.1776276669989,[np.float64(0.25333333333333335)],[np.float64(0.085)],[1],[0],[0],[1.8827796249825042],['target'],2,001,2025-09-28_16h49.31.421,Visual Search Experiment,,2025.1.1,None,2025-09-28 16h49.37.936172 +0530,
143,0,143,[np.float64(0.25)],[np.float64(0.2866666666666667)],[1],[0],[0],[0.9383255830034614],['target'],143,0,143,0,265.194664583978,,5,265.1884293339972,265.194664583978,265.194664583978,0.010631749988533556,266.1268077089917,[np.float64(0.25)],[np.float64(0.2866666666666667)],[1],[0],[0],[0.9383255830034614],['target'],2,001,2025-09-28_16h49.31.421,Visual Search Experiment,,2025.1.1,None,2025-09-28 16h49.37.936172 +0530,
144,0,144,[np.float64(-0.09833333333333333)],[np.float64(-0.31166666666666665)],[1],[0],[0],[1.588887457997771],['target'],144,0,144,0,266.1447972089809,,5,266.1379352499789,266.1447972089809,266.1447972089809,0.010985459026414901,267.72688420899794,[np.float64(-0.09833333333333333)],[np.float64(-0.31166666666666665)],[1],[0],[0],[1.588887457997771],['target'],2,001,2025-09-28_16h49.31.421,Visual Search Experiment,,2025.1.1,None,2025-09-28 16h49.37.936172 +0530,
145,0,145,[np.float64(-0.455)],[np.float64(-0.09833333333333333)],[1],[0],[0],[1.2619515410042368],['target'],145,0,145,0,267.75584191698,,10,267.747101291985,267.75584191698,267.75584191698,0.020054415974300355,269.00906412498443,[np.float64(-0.455)],[np.float64(-0.09833333333333333)],[1],[0],[0],[1.2619515410042368],['target'],2,001,2025-09-28_16h49.31.421,Visual Search Experiment,,2025.1.1,None,2025-09-28 16h49.37.936172 +0530,
146,0,146,[np.float64(0.06)],[np.float64(-0.03666666666666667)],[1],[0],[0],[1.7133651250042021],['target'],146,0,146,0,269.01949700000114,,5,269.01436483400175,269.01949700000114,269.01949700000114,0.005234958021901548,270.72779716699733,[np.float64(0.06)],[np.float64(-0.03666666666666667)],[1],[0],[0],[1.7133651250042021],['target'],2,001,2025-09-28_16h49.31.421,Visual Search Experiment,,2025.1.1,None,2025-09-28 16h49.37.936172 +0530,
147,0,147,[np.float64(-0.37)],[np.float64(0.47333333333333333)],[1],[0],[0],[2.412140415981412],['target'],147,0,147,0,270.75736491699354,,10,270.74844208397553,270.75736491699354,270.75736491699354,0.02046625001821667,273.160623416974,[np.float64(-0.37)],[np.float64(0.47333333333333333)],[1],[0],[0],[2.412140415981412],['target'],2,001,2025-09-28_16h49.31.421,Visual Search Experiment,,2025.1.1,None,2025-09-28 16h49.37.936172 +0530,
148,0,148,[np.float64(-0.15333333333333332)],[np.float64(0.4666666666666667)],[1],[0],[0],[1.166039500007173],['target'],148,0,148,0,273.1854354169918,,10,273.1781247499748,273.1854354169918,273.1854354169918,0.01733441697433591,274.3442114169884,[np.float64(-0.15333333333333332)],[np.float64(0.4666666666666667)],[1],[0],[0],[1.166039500007173],['target'],2,001,2025-09-28_16h49.31.421,Visual Search Experiment,,2025.1.1,None,2025-09-28 16h49.37.936172 +0530,
149,0,149,[np.float64(0.013333333333333334)],[np.float64(0.3283333333333333)],[1],[0],[0],[1.16346212499775],['target'],149,0,149,0,274.3709039169771,,10,274.3632026249834,274.3709039169771,274.3709039169771,0.018827499996405095,275.5267120419885,[np.float64(0.013333333333333334)],[np.float64(0.3283333333333333)],[1],[0],[0],[1.16346212499775],['target'],2,001,2025-09-28_16h49.31.421,Visual Search Experiment,,2025.1.1,None,2025-09-28 16h49.37.936172 +0530,
150,0,150,[np.float64(-0.20333333333333334)],[np.float64(0.35833333333333334)],[1],[0],[0],[1.2755450420081615],['target'],150,0,150,0,275.5416260419879,,5,275.53601895898464,275.5416260419879,275.5416260419879,0.009165750001557171,276.81162245897576,[np.float64(-0.20333333333333334)],[np.float64(0.35833333333333334)],[1],[0],[0],[1.2755450420081615],['target'],2,001,2025-09-28_16h49.31.421,Visual Search Experiment,,2025.1.1,None,2025-09-28 16h49.37.936172 +0530,
151,0,151,[np.float64(0.28)],[np.float64(-0.33666666666666667)],[1],[0],[0],[2.194893375009997],['target'],151,0,151,0,276.8412759999919,,10,276.8323896249931,276.8412759999919,276.8412759999919,0.02060920899384655,279.0273252920015,[np.float64(0.28)],[np.float64(-0.33666666666666667)],[1],[0],[0],[2.194893375009997],['target'],2,001,2025-09-28_16h49.31.421,Visual Search Experiment,,2025.1.1,None,2025-09-28 16h49.37.936172 +0530,
152,0,152,[np.float64(0.09833333333333333)],[np.float64(0.15333333333333332)],[1],[0],[0],[1.2822447499784175],['target'],152,0,152,0,279.05283533397596,,10,279.04539337498136,279.05283533397596,279.05283533397596,0.017893832991831005,280.327687958983,[np.float64(0.09833333333333333)],[np.float64(0.15333333333333332)],[1],[0],[0],[1.2822447499784175],['target'],2,001,2025-09-28_16h49.31.421,Visual Search Experiment,,2025.1.1,None,2025-09-28 16h49.37.936172 +0530,
153,0,153,[np.float64(0.245)],[np.float64(0.19833333333333333)],[1],[0],[0],[0.9221370839804877],['target'],153,0,153,0,280.34519216697663,,5,280.33867191697937,280.34519216697663,280.34519216697663,0.010824583005160093,281.2608716249815,[np.float64(0.245)],[np.float64(0.19833333333333333)],[1],[0],[0],[0.9221370839804877],['target'],2,001,2025-09-28_16h49.31.421,Visual Search Experiment,,2025.1.1,None,2025-09-28 16h49.37.936172 +0530,
154,0,154,[np.float64(-0.35333333333333333)],[np.float64(0.48)],[1],[0],[0],[3.3460137500078417],['target'],154,0,154,0,281.2900228340004,,10,281.2811906669813,281.2900228340004,281.2900228340004,0.02014479201170616,284.62724345899187,[np.float64(-0.35333333333333333)],[np.float64(0.48)],[1],[0],[0],[3.3460137500078417],['target'],2,001,2025-09-28_16h49.31.421,Visual Search Experiment,,2025.1.1,None,2025-09-28 16h49.37.936172 +0530,
155,0,155,[np.float64(-0.06)],[np.float64(0.41)],[1],[0],[0],[0.9066427079960704],['target'],155,0,155,0,284.6930493749969,,10,284.6871800419758,284.6930493749969,284.6930493749969,0.059788792015751824,285.5938632499892,[np.float64(-0.06)],[np.float64(0.41)],[1],[0],[0],[0.9066427079960704],['target'],2,001,2025-09-28_16h49.31.421,Visual Search Experiment,,2025.1.1,None,2025-09-28 16h49.37.936172 +0530,
156,0,156,[np.float64(0.016666666666666666)],[np.float64(-0.47833333333333333)],[1],[0],[0],[1.832098374987254],['target'],156,0,156,0,285.6189488749951,,10,285.6116504169768,285.6189488749951,285.6189488749951,0.017649207991780713,287.44380445897696,[np.float64(0.016666666666666666)],[np.float64(-0.47833333333333333)],[1],[0],[0],[1.832098374987254],['target'],2,001,2025-09-28_16h49.31.421,Visual Search Experiment,,2025.1.1,None,2025-09-28 16h49.37.936172 +0530,
157,0,157,[np.float64(0.295)],[np.float64(-0.2916666666666667)],[1],[0],[0],[1.4894710409862455],['target'],157,0,157,0,287.4605996249884,,5,287.45415558398236,287.4605996249884,287.4605996249884,0.010192250018008053,288.943676083989,[np.float64(0.295)],[np.float64(-0.2916666666666667)],[1],[0],[0],[1.4894710409862455],['target'],2,001,2025-09-28_16h49.31.421,Visual Search Experiment,,2025.1.1,None,2025-09-28 16h49.37.936172 +0530,
158,0,158,[np.float64(-0.3616666666666667)],[np.float64(-0.22)],[1],[0],[0],[1.7308830410183873],['target'],158,0,158,0,288.97132308399887,,10,288.9631099999824,288.97132308399887,288.97132308399887,0.0193012919917237,290.69402858399553,[np.float64(-0.3616666666666667)],[np.float64(-0.22)],[1],[0],[0],[1.7308830410183873],['target'],2,001,2025-09-28_16h49.31.421,Visual Search Experiment,,2025.1.1,None,2025-09-28 16h49.37.936172 +0530,
159,0,159,[np.float64(0.29833333333333334)],[np.float64(0.16)],[1],[0],[0],[1.4320639579964336],['target'],159,0,159,0,290.7185350419895,,10,290.7113988749916,290.7185350419895,290.7185350419895,0.017234124999959022,292.1435113749758,[np.float64(0.29833333333333334)],[np.float64(0.16)],[1],[0],[0],[1.4320639579964336],['target'],2,001,2025-09-28_16h49.31.421,Visual Search Experiment,,2025.1.1,None,2025-09-28 16h49.37.936172 +0530,
160,0,160,[np.float64(-0.09)],[np.float64(0.4633333333333333)],[1],[0],[0],[1.865713458013488],['target'],160,0,160,0,292.1692422499764,,10,292.16196800000034,292.1692422499764,292.1692422499764,0.018294875015271828,294.02772912499495,[np.float64(-0.09)],[np.float64(0.4633333333333333)],[1],[0],[0],[1.865713458013488],['target'],2,001,2025-09-28_16h49.31.421,Visual Search Experiment,,2025.1.1,None,2025-09-28 16h49.37.936172 +0530,
161,0,161,[np.float64(-0.09666666666666666)],[np.float64(0.22666666666666666)],[1],[0],[0],[1.4144774170126766],['target'],161,0,161,0,294.0530455419794,,10,294.04559699998936,294.0530455419794,294.0530455419794,0.0177268749976065,295.46011720897513,[np.float64(-0.09666666666666666)],[np.float64(0.22666666666666666)],[1],[0],[0],[1.4144774170126766],['target'],2,001,2025-09-28_16h49.31.421,Visual Search Experiment,,2025.1.1,None,2025-09-28 16h49.37.936172 +0530,
162,0,162,[np.float64(0.345)],[np.float64(-0.35333333333333333)],[1],[0],[0],[2.849605833995156],[None],162,0,162,0,295.48492654197617,,10,295.47779045900097,295.48492654197617,295.48492654197617,0.01753754200763069,298.3274454170023,[np.float64(0.345)],[np.float64(-0.35333333333333333)],[1],[0],[0],[2.849605833995156],[None],2,001,2025-09-28_16h49.31.421,Visual Search Experiment,,2025.1.1,None,2025-09-28 16h49.37.936172 +0530,
163,0,163,[np.float64(-0.375)],[np.float64(0.26166666666666666)],[1],[0],[0],[1.6813437079836149],['target'],163,0,163,0,298.35342604198377,,10,298.3458001249819,298.35342604198377,298.35342604198377,0.01818429201375693,300.02718229198945,[np.float64(-0.375)],[np.float64(0.26166666666666666)],[1],[0],[0],[1.6813437079836149],['target'],2,001,2025-09-28_16h49.31.421,Visual Search Experiment,,2025.1.1,None,2025-09-28 16h49.37.936172 +0530,
164,0,164,[np.float64(0.24)],[np.float64(-0.16666666666666666)],[1],[0],[0],[2.098441667010775],['target'],164,0,164,0,300.0519890419964,,10,300.0447735839989,300.0519890419964,300.0519890419964,0.017449208011385053,302.14326429198263,[np.float64(0.24)],[np.float64(-0.16666666666666666)],[1],[0],[0],[2.098441667010775],['target'],2,001,2025-09-28_16h49.31.421,Visual Search Experiment,,2025.1.1,None,2025-09-28 16h49.37.936172 +0530,
165,0,165,[np.float64(-0.13666666666666666)],[np.float64(-0.07333333333333333)],[1],[0],[0],[2.75651987499441],['target'],165,0,165,0,302.1600012089766,,5,302.1537256669835,302.1600012089766,302.1600012089766,0.010294875013642013,304.91031983398716,[np.float64(-0.13666666666666666)],[np.float64(-0.07333333333333333)],[1],[0],[0],[2.75651987499441],['target'],2,001,2025-09-28_16h49.31.421,Visual Search Experiment,,2025.1.1,None,2025-09-28 16h49.37.936172 +0530,
166,0,166,[np.float64(-0.185)],[np.float64(0.395)],[1],[0],[0],[1.6635920000262558],['target'],166,0,166,0,304.9391897499736,,10,304.93085258398787,304.9391897499736,304.9391897499736,0.020342375006293878,306.59448362499825,[np.float64(-0.185)],[np.float64(0.395)],[1],[0],[0],[1.6635920000262558],['target'],2,001,2025-09-28_16h49.31.421,Visual Search Experiment,,2025.1.1,None,2025-09-28 16h49.37.936172 +0530,
167,0,167,[np.float64(-0.41333333333333333)],[np.float64(-0.34833333333333333)],[1],[0],[0],[1.6459951249998994],['target'],167,0,167,0,306.6215299589967,,10,306.613658458984,306.6215299589967,306.6215299589967,0.01901983399875462,308.259689833998,[np.float64(-0.41333333333333333)],[np.float64(-0.34833333333333333)],[1],[0],[0],[1.6459951249998994],['target'],2,001,2025-09-28_16h49.31.421,Visual Search Experiment,,2025.1.1,None,2025-09-28 16h49.37.936172 +0530,
168,0,168,[np.float64(0.03833333333333333)],[np.float64(-0.3416666666666667)],[1],[0],[0],[1.3343294170044828],['target'],168,0,168,0,308.28267433398287,,10,308.27564370899927,308.28267433398287,308.28267433398287,0.01581891701789573,309.6100134169974,[np.float64(0.03833333333333333)],[np.float64(-0.3416666666666667)],[1],[0],[0],[1.3343294170044828],['target'],2,001,2025-09-28_16h49.31.421,Visual Search Experiment,,2025.1.1,None,2025-09-28 16h49.37.936172 +0530,
169,0,169,[np.float64(-0.38)],[np.float64(-0.27)],[1],[0],[0],[1.3735585419926792],['target'],169,0,169,0,309.62631500000134,,5,309.61992162498063,309.62631500000134,309.62631500000134,0.009773166995728388,310.993536458991,[np.float64(-0.38)],[np.float64(-0.27)],[1],[0],[0],[1.3735585419926792],['target'],2,001,2025-09-28_16h49.31.421,Visual Search Experiment,,2025.1.1,None,2025-09-28 16h49.37.936172 +0530,
170,0,170,[np.float64(0.465)],[np.float64(-0.18666666666666668)],[1],[0],[0],[2.7878303329925984],['target'],170,0,170,0,311.01214037497994,,5,311.00560316699557,311.01214037497994,311.01214037497994,0.011935458984225988,313.79349529198953,[np.float64(0.465)],[np.float64(-0.18666666666666668)],[1],[0],[0],[2.7878303329925984],['target'],2,001,2025-09-28_16h49.31.421,Visual Search Experiment,,2025.1.1,None,2025-09-28 16h49.37.936172 +0530,
171,0,171,[np.float64(-0.33666666666666667)],[np.float64(-0.2683333333333333)],[1],[0],[0],[1.896053500007838],['target'],171,0,171,0,313.8228380839864,,10,313.8140279169893,313.8228380839864,313.8228380839864,0.020369499980006367,315.71011579199694,[np.float64(-0.33666666666666667)],[np.float64(-0.2683333333333333)],[1],[0],[0],[1.896053500007838],['target'],2,001,2025-09-28_16h49.31.421,Visual Search Experiment,,2025.1.1,None,2025-09-28 16h49.37.936172 +0530,
172,0,172,[np.float64(0.38166666666666665)],[np.float64(-0.36)],[1],[0],[0],[2.257757750019664],['target'],172,0,172,0,315.72679066698765,,5,315.7202281669888,315.72679066698765,315.72679066698765,0.009970041021006182,317.9780466669763,[np.float64(0.38166666666666665)],[np.float64(-0.36)],[1],[0],[0],[2.257757750019664],['target'],2,001,2025-09-28_16h49.31.421,Visual Search Experiment,,2025.1.1,None,2025-09-28 16h49.37.936172 +0530,
173,0,173,[np.float64(0.17166666666666666)],[np.float64(0.10666666666666667)],[1],[0],[0],[1.5602390419808216],['target'],173,0,173,0,318.00879304198315,,10,318.00008158397395,318.00879304198315,318.00879304198315,0.02187312499154359,319.56036249999306,[np.float64(0.17166666666666666)],[np.float64(0.10666666666666667)],[1],[0],[0],[1.5602390419808216],['target'],2,001,2025-09-28_16h49.31.421,Visual Search Experiment,,2025.1.1,None,2025-09-28 16h49.37.936172 +0530,
174,0,174,[np.float64(0.12666666666666668)],[np.float64(-0.24166666666666667)],[1],[0],[0],[1.1724220830074046],['target'],174,0,174,0,319.57726408398594,,5,319.5709081249952,319.57726408398594,319.57726408398594,0.010375457990448922,320.74338237498887,[np.float64(0.12666666666666668)],[np.float64(-0.24166666666666667)],[1],[0],[0],[1.1724220830074046],['target'],2,001,2025-09-28_16h49.31.421,Visual Search Experiment,,2025.1.1,None,2025-09-28 16h49.37.936172 +0530,
175,0,175,[np.float64(-0.10666666666666667)],[np.float64(-0.20333333333333334)],[1],[0],[0],[1.0715026250109076],['target'],175,0,175,0,320.76158562497585,,5,320.75491604200215,320.76158562497585,320.76158562497585,0.011371833010343835,321.8264702919987,[np.float64(-0.10666666666666667)],[np.float64(-0.20333333333333334)],[1],[0],[0],[1.0715026250109076],['target'],2,001,2025-09-28_16h49.31.421,Visual Search Experiment,,2025.1.1,None,2025-09-28 16h49.37.936172 +0530,
176,0,176,[np.float64(-0.3983333333333333)],[np.float64(-0.47)],[1],[0],[0],[2.0384975409833714],['target'],176,0,176,0,321.8452256669989,,5,321.8385830420011,321.8452256669989,321.8452256669989,0.0119796660146676,323.8771458339761,[np.float64(-0.3983333333333333)],[np.float64(-0.47)],[1],[0],[0],[2.0384975409833714],['target'],2,001,2025-09-28_16h49.31.421,Visual Search Experiment,,2025.1.1,None,2025-09-28 16h49.37.936172 +0530,
177,0,177,[np.float64(0.42333333333333334)],[np.float64(0.22166666666666668)],[1],[0],[0],[1.3538480830029584],['target'],177,0,177,0,323.8965479999897,,5,323.8895667089964,323.8965479999897,323.8965479999897,0.012264250020962209,325.2434762499761,[np.float64(0.42333333333333334)],[np.float64(0.22166666666666668)],[1],[0],[0],[1.3538480830029584],['target'],2,001,2025-09-28_16h49.31.421,Visual Search Experiment,,2025.1.1,None,2025-09-28 16h49.37.936172 +0530,
178,0,178,[np.float64(0.43833333333333335)],[np.float64(-0.16)],[1],[0],[0],[1.7303794999897946],['target'],178,0,178,0,325.2719099999813,,10,325.2634541669977,325.2719099999813,325.2719099999813,0.019813249993603677,326.99387783400016,[np.float64(0.43833333333333335)],[np.float64(-0.16)],[1],[0],[0],[1.7303794999897946],['target'],2,001,2025-09-28_16h49.31.421,Visual Search Experiment,,2025.1.1,None,2025-09-28 16h49.37.936172 +0530,
179,0,179,[np.float64(-0.335)],[np.float64(-0.19666666666666666)],[1],[0],[0],[2.0320904580003116],['target'],179,0,179,0,327.01935962497373,,10,327.01181795899174,327.01935962497373,327.01935962497373,0.01776579100987874,329.04395604197634,[np.float64(-0.335)],[np.float64(-0.19666666666666666)],[1],[0],[0],[2.0320904580003116],['target'],2,001,2025-09-28_16h49.31.421,Visual Search Experiment,,2025.1.1,None,2025-09-28 16h49.37.936172 +0530,
180,0,180,[np.float64(-0.485)],[np.float64(-0.25333333333333335)],[1],[0],[0],[2.765457375004189],['target'],180,0,180,0,329.069272541994,,10,329.0618600839807,329.069272541994,329.069272541994,0.017743083008099347,331.8273624999856,[np.float64(-0.485)],[np.float64(-0.25333333333333335)],[1],[0],[0],[2.765457375004189],['target'],2,001,2025-09-28_16h49.31.421,Visual Search Experiment,,2025.1.1,None,2025-09-28 16h49.37.936172 +0530,
181,0,181,[np.float64(-0.16666666666666666)],[np.float64(0.40166666666666667)],[1],[0],[0],[2.071919792011613],['target'],181,0,181,0,331.8448324999772,,5,331.83835799997905,331.8448324999772,331.8448324999772,0.010839416994713247,333.91034354199655,[np.float64(-0.16666666666666666)],[np.float64(0.40166666666666667)],[1],[0],[0],[2.071919792011613],['target'],2,001,2025-09-28_16h49.31.421,Visual Search Experiment,,2025.1.1,None,2025-09-28 16h49.37.936172 +0530,
182,0,182,[np.float64(0.2866666666666667)],[np.float64(-0.4)],[1],[0],[0],[2.2542592090030666],['target'],182,0,182,0,333.9296492089925,,5,333.92263295900193,333.9296492089925,333.9296492089925,0.01211874998989515,336.176948791981,[np.float64(0.2866666666666667)],[np.float64(-0.4)],[1],[0],[0],[2.2542592090030666],['target'],2,001,2025-09-28_16h49.31.421,Visual Search Experiment,,2025.1.1,None,2025-09-28 16h49.37.936172 +0530,
183,0,183,[np.float64(0.20666666666666667)],[np.float64(-0.14166666666666666)],[1],[0],[0],[1.4872904999938328],['target'],183,0,183,0,336.196228041983,,5,336.1893565419887,336.196228041983,336.196228041983,0.01224400001228787,337.6767193339765,[np.float64(0.20666666666666667)],[np.float64(-0.14166666666666666)],[1],[0],[0],[1.4872904999938328],['target'],2,001,2025-09-28_16h49.31.421,Visual Search Experiment,,2025.1.1,None,2025-09-28 16h49.37.936172 +0530,
184,0,184,[np.float64(0.325)],[np.float64(0.0033333333333333335)],[1],[0],[0],[0.9968709579843562],['target'],184,0,184,0,337.70487191699794,,10,337.69684708397835,337.70487191699794,337.70487191699794,0.01996541701373644,338.69375687499996,[np.float64(0.325)],[np.float64(0.0033333333333333335)],[1],[0],[0],[0.9968709579843562],['target'],2,001,2025-09-28_16h49.31.421,Visual Search Experiment,,2025.1.1,None,2025-09-28 16h49.37.936172 +0530,
185,0,185,[np.float64(-0.22)],[np.float64(0.21833333333333332)],[1],[0],[0],[1.9075815830146894],['target'],185,0,185,0,338.7111154589802,,5,338.7047189589939,338.7111154589802,338.7111154589802,0.010810500010848045,340.61236670898506,[np.float64(-0.22)],[np.float64(0.21833333333333332)],[1],[0],[0],[1.9075815830146894],['target'],2,001,2025-09-28_16h49.31.421,Visual Search Experiment,,2025.1.1,None,2025-09-28 16h49.37.936172 +0530,
186,0,186,[np.float64(-0.04666666666666667)],[np.float64(0.17166666666666666)],[1],[0],[0],[0.9852839169907384],['target'],186,0,186,0,340.6318486669916,,5,340.6249087089964,340.6318486669916,340.6318486669916,0.012405999994371086,341.6102569169889,[np.float64(-0.04666666666666667)],[np.float64(0.17166666666666666)],[1],[0],[0],[0.9852839169907384],['target'],2,001,2025-09-28_16h49.31.421,Visual Search Experiment,,2025.1.1,None,2025-09-28 16h49.37.936172 +0530,
187,0,187,[np.float64(-0.41)],[np.float64(-0.49)],[1],[0],[0],[3.287817458010977],['target'],187,0,187,0,341.6290339169791,,5,341.6220250419865,341.6290339169791,341.6290339169791,0.011598790995776653,344.90990358398994,[np.float64(-0.41)],[np.float64(-0.49)],[1],[0],[0],[3.287817458010977],['target'],2,001,2025-09-28_16h49.31.421,Visual Search Experiment,,2025.1.1,None,2025-09-28 16h49.37.936172 +0530,
188,0,188,[np.float64(0.15)],[np.float64(-0.44)],[1],[0],[0],[2.1797707919904497],['target'],188,0,188,0,344.9391640419781,,10,344.9306764169887,344.9391640419781,344.9391640419781,0.02057875000173226,347.1104916249751,[np.float64(0.15)],[np.float64(-0.44)],[1],[0],[0],[2.1797707919904497],['target'],2,001,2025-09-28_16h49.31.421,Visual Search Experiment,,2025.1.1,None,2025-09-28 16h49.37.936172 +0530,
189,0,189,[np.float64(0.19)],[np.float64(0.19333333333333333)],[1],[0],[0],[1.7395499999984168],['target'],189,0,189,0,347.1272505839879,,5,347.1207744589774,347.1272505839879,347.1272505839879,0.010116833000211045,348.8603769999754,[np.float64(0.19)],[np.float64(0.19333333333333333)],[1],[0],[0],[1.7395499999984168],['target'],2,001,2025-09-28_16h49.31.421,Visual Search Experiment,,2025.1.1,None,2025-09-28 16h49.37.936172 +0530,
190,0,190,[np.float64(-0.34)],[np.float64(-0.43166666666666664)],[1],[0],[0],[2.2715673329948913],['target'],190,0,190,0,348.8786619169987,,5,348.8718069169845,348.8786619169987,348.8786619169987,0.011303707986371592,351.1434559999907,[np.float64(-0.34)],[np.float64(-0.43166666666666664)],[1],[0],[0],[2.2715673329948913],['target'],2,001,2025-09-28_16h49.31.421,Visual Search Experiment,,2025.1.1,None,2025-09-28 16h49.37.936172 +0530,
191,0,191,[np.float64(0.48333333333333334)],[np.float64(-0.4866666666666667)],[1],[0],[0],[2.238949833990773],['target'],191,0,191,0,351.16221779197804,,5,351.1554958749912,351.16221779197804,351.16221779197804,0.01186287502059713,353.394501666975,[np.float64(0.48333333333333334)],[np.float64(-0.4866666666666667)],[1],[0],[0],[2.238949833990773],['target'],2,001,2025-09-28_16h49.31.421,Visual Search Experiment,,2025.1.1,None,2025-09-28 16h49.37.936172 +0530,
192,0,192,[np.float64(0.015)],[np.float64(0.20166666666666666)],[1],[0],[0],[1.952691375016002],['target'],192,0,192,0,353.41427079198183,,5,353.40704208399984,353.41427079198183,353.41427079198183,0.012380166997900233,355.35978208397864,[np.float64(0.015)],[np.float64(0.20166666666666666)],[1],[0],[0],[1.952691375016002],['target'],2,001,2025-09-28_16h49.31.421,Visual Search Experiment,,2025.1.1,None,2025-09-28 16h49.37.936172 +0530,
193,0,193,[np.float64(0.17333333333333334)],[np.float64(-0.3016666666666667)],[1],[0],[0],[1.7544397920137271],['target'],193,0,193,0,355.37863937497605,,5,355.3718810839928,355.37863937497605,355.37863937497605,0.011932124994928017,357.12636799999746,[np.float64(0.17333333333333334)],[np.float64(-0.3016666666666667)],[1],[0],[0],[1.7544397920137271],['target'],2,001,2025-09-28_16h49.31.421,Visual Search Experiment,,2025.1.1,None,2025-09-28 16h49.37.936172 +0530,
194,0,194,[np.float64(0.016666666666666666)],[np.float64(0.3333333333333333)],[1],[0],[0],[2.1806019169744104],['target'],194,0,194,0,357.1549387499981,,10,357.1464499589929,357.1549387499981,357.1549387499981,0.01995237500523217,359.32709141698433,[np.float64(0.016666666666666666)],[np.float64(0.3333333333333333)],[1],[0],[0],[2.1806019169744104],['target'],2,001,2025-09-28_16h49.31.421,Visual Search Experiment,,2025.1.1,None,2025-09-28 16h49.37.936172 +0530,
195,0,195,[np.float64(-0.17333333333333334)],[np.float64(0.013333333333333334)],[1],[0],[0],[1.813384249981027],['target'],195,0,195,0,359.3531792499998,,10,359.3457427919784,359.3531792499998,359.3531792499998,0.018476375000318512,361.1591631670017,[np.float64(-0.17333333333333334)],[np.float64(0.013333333333333334)],[1],[0],[0],[1.813384249981027],['target'],2,001,2025-09-28_16h49.31.421,Visual Search Experiment,,2025.1.1,None,2025-09-28 16h49.37.936172 +0530,
196,0,196,[np.float64(-0.051666666666666666)],[np.float64(-0.14833333333333334)],[1],[0],[0],[1.3436997919925489],['target'],196,0,196,0,361.174382874975,,5,361.16864545899443,361.174382874975,361.174382874975,0.00934058299753815,362.51241199998185,[np.float64(-0.051666666666666666)],[np.float64(-0.14833333333333334)],[1],[0],[0],[1.3436997919925489],['target'],2,001,2025-09-28_16h49.31.421,Visual Search Experiment,,2025.1.1,None,2025-09-28 16h49.37.936172 +0530,
197,0,197,[np.float64(-0.38333333333333336)],[np.float64(-0.23166666666666666)],[1],[0],[0],[1.750966708001215],['target'],197,0,197,0,362.53296354197664,,5,362.52588266698876,362.53296354197664,362.53296354197664,0.013302709005074576,364.2769146669889,[np.float64(-0.38333333333333336)],[np.float64(-0.23166666666666666)],[1],[0],[0],[1.750966708001215],['target'],2,001,2025-09-28_16h49.31.421,Visual Search Experiment,,2025.1.1,None,2025-09-28 16h49.37.936172 +0530,
198,0,198,[np.float64(0.25666666666666665)],[np.float64(0.4716666666666667)],[1],[0],[0],[2.8944974999758415],['target'],198,0,198,0,364.3074868339754,,10,364.2989248340018,364.3074868339754,364.3074868339754,0.021827457996550947,367.1934560419759,[np.float64(0.25666666666666665)],[np.float64(0.4716666666666667)],[1],[0],[0],[2.8944974999758415],['target'],2,001,2025-09-28_16h49.31.421,Visual Search Experiment,,2025.1.1,None,2025-09-28 16h49.37.936172 +0530,
199,0,199,[np.float64(-0.14166666666666666)],[np.float64(-0.19166666666666668)],[1],[0],[0],[3.232224750012392],['target'],199,0,199,0,367.2185804589826,,10,367.2113754169841,367.2185804589826,367.2185804589826,0.01777404098538682,370.4436487919884,[np.float64(-0.14166666666666666)],[np.float64(-0.19166666666666668)],[1],[0],[0],[3.232224750012392],['target'],2,001,2025-09-28_16h49.31.421,Visual Search Experiment,,2025.1.1,None,2025-09-28 16h49.37.936172 +0530,
