pos,corr_resp,thisN,thisTrialN,thisRepN,key_resp.keys,key_resp.corr,key_resp.rt,key_resp.duration,trials.thisRepN,trials.thisTrialN,trials.thisN,trials.thisIndex,trials_2.thisRepN,trials_2.thisTrialN,trials_2.thisN,trials_2.thisIndex,thisRow.t,notes,trial.started,fixation.started,line_1.started,line_2.started,line_3.started,line_4.started,fixation.stopped,probe.started,key_resp.started,trial.stopped,trials.key_resp.keys,trials.key_resp.corr,trials.key_resp.rt,trials.key_resp.duration,trials_2.key_resp.keys,trials_2.key_resp.corr,trials_2.key_resp.rt,trials_2.key_resp.duration,participant,session,date,expName,expVersion,psychopyVersion,frameRate,expStart,
-50,x,0,0,0,x,1,0.5344270410132594,None,0,0,0,0,,,,,0.016140667023137212,,0.009255666984245181,0.016140667023137212,1.0103809169959277,1.0103809169959277,1.0103809169959277,1.0103809169959277,1.0128018750110641,2.0004256250103936,2.0004256250103936,2.7111345829907805,x,1,0.5344270410132594,None,,,,,3,001,2025-10-01_11h45.19.951, Motor Sequence Learning,,2025.1.1,None,2025-10-01 11h46.48.403798 +0530,
150,v,1,1,0,v,1,0.3188848739955574,None,0,1,1,1,,,,,2.715834792004898,,2.7113081670249812,2.715834792004898,3.6995063750073314,3.6995063750073314,3.6995063750073314,3.6995063750073314,3.7101772080059163,4.6993606250034645,4.6993606250034645,5.028552667004988,v,1,0.3188848739955574,None,,,,,3,001,2025-10-01_11h45.19.951, Motor Sequence Learning,,2025.1.1,None,2025-10-01 11h46.48.403798 +0530,
50,c,2,2,0,c,1,0.2929789580521174,None,0,2,2,2,,,,,5.037098166998476,,5.029093916993588,5.037098166998476,6.027064708003309,6.027064708003309,6.027064708003309,6.027064708003309,6.032016417011619,7.026850582973566,7.026850582973566,7.328816332970746,c,1,0.2929789580521174,None,,,,,3,001,2025-10-01_11h45.19.951, Motor Sequence Learning,,2025.1.1,None,2025-10-01 11h46.48.403798 +0530,
-150,z,3,3,0,z,1,0.4511221249704249,None,0,3,3,3,,,,,7.337872333009727,,7.329493207973428,7.337872333009727,8.326936875004321,8.326936875004321,8.326936875004321,8.326936875004321,8.332331957994029,9.326729791995604,9.326729791995604,9.78227412502747,z,1,0.4511221249704249,None,,,,,3,001,2025-10-01_11h45.19.951, Motor Sequence Learning,,2025.1.1,None,2025-10-01 11h46.48.403798 +0530,
-50,x,4,0,1,x,1,0.32010637398343533,None,1,0,4,0,,,,,9.793127958022524,,9.782777416985482,9.793127958022524,10.783595625020098,10.783595625020098,10.783595625020098,10.783595625020098,10.783595625020098,11.782549083000049,11.782549083000049,12.111733708006795,x,1,0.32010637398343533,None,,,,,3,001,2025-10-01_11h45.19.951, Motor Sequence Learning,,2025.1.1,None,2025-10-01 11h46.48.403798 +0530,
150,v,5,1,1,v,1,0.38949691597372293,None,1,1,5,1,,,,,12.121567207970656,,12.112326333008241,12.121567207970656,13.110347541980445,13.110347541980445,13.110347541980445,13.110347541980445,13.116454207978677,14.110167625010945,14.110167625010945,14.511817957973108,v,1,0.38949691597372293,None,,,,,3,001,2025-10-01_11h45.19.951, Motor Sequence Learning,,2025.1.1,None,2025-10-01 11h46.48.403798 +0530,
50,c,6,2,1,x,0,0.25129645701963454,None,1,2,6,2,,,,,14.520454042009078,,14.512392333010212,14.520454042009078,15.510094167024363,15.510094167024363,15.510094167024363,15.510094167024363,15.51491841697134,16.51025837502675,16.51025837502675,16.76572154200403,x,0,0.25129645701963454,None,,,,,3,001,2025-10-01_11h45.19.951, Motor Sequence Learning,,2025.1.1,None,2025-10-01 11h46.48.403798 +0530,
-150,z,7,3,1,z,1,0.520288416009862,None,1,3,7,3,,,,,16.77633166697342,,16.76623720797943,16.77633166697342,17.7658341670176,17.7658341670176,17.7658341670176,17.7658341670176,17.7658341670176,18.766418749990407,18.766418749990407,19.2951313329977,z,1,0.520288416009862,None,,,,,3,001,2025-10-01_11h45.19.951, Motor Sequence Learning,,2025.1.1,None,2025-10-01 11h46.48.403798 +0530,
-50,x,8,0,2,x,1,0.49799579102545977,None,2,0,8,0,,,,,19.303690332977567,,19.29567775002215,19.303690332977567,20.29366033297265,20.29366033297265,20.29366033297265,20.29366033297265,20.29904891701881,21.293488207971677,21.293488207971677,21.79518445802387,x,1,0.49799579102545977,None,,,,,3,001,2025-10-01_11h45.19.951, Motor Sequence Learning,,2025.1.1,None,2025-10-01 11h46.48.403798 +0530,
150,v,9,1,2,v,1,0.3148047069553286,None,2,1,9,1,,,,,21.80384349997621,,21.795755417027976,21.80384349997621,22.79383733298164,22.79383733298164,22.79383733298164,22.79383733298164,22.800255374982953,23.793625416990835,23.793625416990835,24.111706166993827,v,1,0.3148047069553286,None,,,,,3,001,2025-10-01_11h45.19.951, Motor Sequence Learning,,2025.1.1,None,2025-10-01 11h46.48.403798 +0530,
50,c,10,2,2,c,1,0.3390302490442991,None,2,2,10,2,,,,,24.12011091702152,,24.11223633302143,24.12011091702152,25.11027699999977,25.11027699999977,25.11027699999977,25.11027699999977,25.114603666996118,26.110332083015237,26.110332083015237,26.462119375006296,c,1,0.3390302490442991,None,,,,,3,001,2025-10-01_11h45.19.951, Motor Sequence Learning,,2025.1.1,None,2025-10-01 11h46.48.403798 +0530,
-150,z,11,3,2,z,1,0.4880818739766255,None,2,3,11,3,,,,,26.47078687499743,,26.462681750010233,26.47078687499743,27.460255792015232,27.460255792015232,27.460255792015232,27.460255792015232,27.46500562498113,28.460090541979298,28.460090541979298,28.962071541987825,z,1,0.4880818739766255,None,,,,,3,001,2025-10-01_11h45.19.951, Motor Sequence Learning,,2025.1.1,None,2025-10-01 11h46.48.403798 +0530,
-50,x,12,0,3,x,1,0.3960812500445172,None,3,0,12,0,,,,,28.97133266698802,,28.96278150001308,28.97133266698802,29.960204707982484,29.960204707982484,29.960204707982484,29.960204707982484,29.965512582974043,30.960273541975766,30.960273541975766,31.36193104198901,x,1,0.3960812500445172,None,,,,,3,001,2025-10-01_11h45.19.951, Motor Sequence Learning,,2025.1.1,None,2025-10-01 11h46.48.403798 +0530,
150,v,13,1,3,v,1,0.37993183301296085,None,3,1,13,1,,,,,31.370937291998416,,31.36266062501818,31.370937291998416,32.36040670797229,32.36040670797229,32.36040670797229,32.36040670797229,32.365299207973294,33.36028500000248,33.36028500000248,33.74520179198589,v,1,0.37993183301296085,None,,,,,3,001,2025-10-01_11h45.19.951, Motor Sequence Learning,,2025.1.1,None,2025-10-01 11h46.48.403798 +0530,
50,c,14,2,3,c,1,0.2702859989949502,None,3,2,14,2,,,,,33.75390370801324,,33.745766083011404,33.75390370801324,34.74354191700695,34.74354191700695,34.74354191700695,34.74354191700695,34.74797770800069,35.74385824997444,35.74385824997444,36.017194833024405,c,1,0.2702859989949502,None,,,,,3,001,2025-10-01_11h45.19.951, Motor Sequence Learning,,2025.1.1,None,2025-10-01 11h46.48.403798 +0530,
-150,z,15,3,3,z,1,0.3088896249537356,None,3,3,15,3,,,,,36.02650120801991,,36.01768958300818,36.02650120801991,37.01543066697195,37.01543066697195,37.01543066697195,37.01543066697195,37.01543066697195,38.01648595801089,38.01648595801089,38.32877695799107,z,1,0.3088896249537356,None,,,,,3,001,2025-10-01_11h45.19.951, Motor Sequence Learning,,2025.1.1,None,2025-10-01 11h46.48.403798 +0530,
-50,x,16,0,4,x,1,0.2742476660059765,None,4,0,16,0,,,,,38.33774733298924,,38.32960787502816,38.33774733298924,39.32673558301758,39.32673558301758,39.32673558301758,39.32673558301758,39.33131300000241,40.32682487502461,40.32682487502461,40.61261429201113,x,1,0.2742476660059765,None,,,,,3,001,2025-10-01_11h45.19.951, Motor Sequence Learning,,2025.1.1,None,2025-10-01 11h46.48.403798 +0530,
150,v,17,1,4,v,1,0.2837985409423709,None,4,1,17,1,,,,,40.62129387498135,,40.613254875002895,40.62129387498135,41.6103051250102,41.6103051250102,41.6103051250102,41.6103051250102,41.61591120797675,42.61019491701154,42.61019491701154,42.89973937498871,v,1,0.2837985409423709,None,,,,,3,001,2025-10-01_11h45.19.951, Motor Sequence Learning,,2025.1.1,None,2025-10-01 11h46.48.403798 +0530,
50,c,18,2,4,c,1,0.2358110409695655,None,4,2,18,2,,,,,42.90940420801053,,42.900203833007254,42.90940420801053,43.90033874998335,43.90033874998335,43.90033874998335,43.90033874998335,43.90033874998335,44.89945666701533,44.89945666701533,45.14533633302199,c,1,0.2358110409695655,None,,,,,3,001,2025-10-01_11h45.19.951, Motor Sequence Learning,,2025.1.1,None,2025-10-01 11h46.48.403798 +0530,
-150,z,19,3,4,z,1,0.29744029097491875,None,4,3,19,3,,,,,45.15606399998069,,45.1460618749843,45.15606399998069,46.143640458001755,46.143640458001755,46.143640458001755,46.143640458001755,46.14857725001639,47.143505958025344,47.143505958025344,47.445676292001735,z,1,0.29744029097491875,None,,,,,3,001,2025-10-01_11h45.19.951, Motor Sequence Learning,,2025.1.1,None,2025-10-01 11h46.48.403798 +0530,
-50,x,20,0,5,x,1,0.35636641597375274,None,5,0,20,0,,,,,47.45597408298636,,47.44634700001916,47.45597408298636,48.44358533300692,48.44358533300692,48.44358533300692,48.44358533300692,48.448182917025406,49.44348554202588,49.44348554202588,49.812198082974646,x,1,0.35636641597375274,None,,,,,3,001,2025-10-01_11h45.19.951, Motor Sequence Learning,,2025.1.1,None,2025-10-01 11h46.48.403798 +0530,
150,v,21,1,5,v,1,0.33355616603512317,None,5,1,21,1,,,,,49.82248262502253,,49.81288541702088,49.82248262502253,50.810350249987096,50.810350249987096,50.810350249987096,50.810350249987096,50.816067125007976,51.81021216697991,51.81021216697991,52.14972670801217,v,1,0.33355616603512317,None,,,,,3,001,2025-10-01_11h45.19.951, Motor Sequence Learning,,2025.1.1,None,2025-10-01 11h46.48.403798 +0530,
50,c,22,2,5,c,1,0.2659181240014732,None,5,2,22,2,,,,,52.15939899999648,,52.15023425000254,52.15939899999648,53.148229916987475,53.148229916987475,53.148229916987475,53.148229916987475,53.148229916987475,54.149496332975104,54.149496332975104,54.42853604198899,c,1,0.2659181240014732,None,,,,,3,001,2025-10-01_11h45.19.951, Motor Sequence Learning,,2025.1.1,None,2025-10-01 11h46.48.403798 +0530,
-150,z,23,3,5,z,1,0.33113662397954613,None,5,3,23,3,,,,,54.43828691699309,,54.42913133301772,54.43828691699309,55.42683641699841,55.42683641699841,55.42683641699841,55.42683641699841,55.431389249977656,56.42664808302652,56.42664808302652,56.76184733299306,z,1,0.33113662397954613,None,,,,,3,001,2025-10-01_11h45.19.951, Motor Sequence Learning,,2025.1.1,None,2025-10-01 11h46.48.403798 +0530,
-50,x,24,0,6,x,1,1.083374832989648,None,6,0,24,0,,,,,56.771820041991305,,56.762412249983754,56.771820041991305,57.760142166982405,57.760142166982405,57.760142166982405,57.760142166982405,57.76530508301221,58.760231207998004,58.760231207998004,59.85015370801557,x,1,1.083374832989648,None,,,,,3,001,2025-10-01_11h45.19.951, Motor Sequence Learning,,2025.1.1,None,2025-10-01 11h46.48.403798 +0530,
150,v,25,1,6,v,1,0.4233618750004098,None,6,1,25,1,,,,,59.85973066702718,,59.850644166988786,59.85973066702718,60.84835691697663,60.84835691697663,60.84835691697663,60.84835691697663,60.84835691697663,61.850261125015095,61.850261125015095,62.278471041994635,v,1,0.4233618750004098,None,,,,,3,001,2025-10-01_11h45.19.951, Motor Sequence Learning,,2025.1.1,None,2025-10-01 11h46.48.403798 +0530,
50,c,26,2,6,c,1,0.44363304099533707,None,6,2,26,2,,,,,62.28840266697807,,62.279039875022136,62.28840266697807,63.2768010830041,63.2768010830041,63.2768010830041,63.2768010830041,63.28157295798883,64.27687800000422,64.27687800000422,64.72857766697416,c,1,0.44363304099533707,None,,,,,3,001,2025-10-01_11h45.19.951, Motor Sequence Learning,,2025.1.1,None,2025-10-01 11h46.48.403798 +0530,
-150,z,27,3,6,z,1,0.31451329099945724,None,6,3,27,3,,,,,64.73863883299055,,64.7291768330033,64.73863883299055,65.72728633298539,65.72728633298539,65.72728633298539,65.72728633298539,65.7337091669906,66.72698020801181,66.72698020801181,67.04517137497896,z,1,0.31451329099945724,None,,,,,3,001,2025-10-01_11h45.19.951, Motor Sequence Learning,,2025.1.1,None,2025-10-01 11h46.48.403798 +0530,
-50,x,28,0,7,x,1,0.2876181250321679,None,7,0,28,0,,,,,67.05512774997624,,67.04582237498835,67.05512774997624,68.04362379200757,68.04362379200757,68.04362379200757,68.04362379200757,68.04881954198936,69.04343120800331,69.04343120800331,69.34504241700051,x,1,0.2876181250321679,None,,,,,3,001,2025-10-01_11h45.19.951, Motor Sequence Learning,,2025.1.1,None,2025-10-01 11h46.48.403798 +0530,
150,v,29,1,7,v,1,0.2830602079629898,None,7,1,29,1,,,,,69.35498283297056,,69.34571458300343,69.35498283297056,70.3435407920042,70.3435407920042,70.3435407920042,70.3435407920042,70.34808004199294,71.34337787498953,71.34337787498953,71.6285749580129,v,1,0.2830602079629898,None,,,,,3,001,2025-10-01_11h45.19.951, Motor Sequence Learning,,2025.1.1,None,2025-10-01 11h46.48.403798 +0530,
50,c,30,2,7,c,1,0.2365808329777792,None,7,2,30,2,,,,,71.63895829202374,,71.62920629198197,71.63895829202374,72.62687774997903,72.62687774997903,72.62687774997903,72.62687774997903,72.63155308301793,73.62690420798026,73.62690420798026,73.8665268329787,c,1,0.2365808329777792,None,,,,,3,001,2025-10-01_11h45.19.951, Motor Sequence Learning,,2025.1.1,None,2025-10-01 11h46.48.403798 +0530,
-150,z,31,3,7,z,1,0.30563012399943545,None,7,3,31,3,,,,,73.87611770798685,,73.86706741701346,73.87611770798685,74.86544233298628,74.86544233298628,74.86544233298628,74.86544233298628,74.86544233298628,75.86579516698839,75.86579516698839,76.17848925001454,z,1,0.30563012399943545,None,,,,,3,001,2025-10-01_11h45.19.951, Motor Sequence Learning,,2025.1.1,None,2025-10-01 11h46.48.403798 +0530,
-50,x,32,0,8,x,1,0.3534091240144335,None,8,0,32,0,,,,,76.18800908297999,,76.17903279198799,76.18800908297999,77.17703987500863,77.17703987500863,77.17703987500863,77.17703987500863,77.18244800000684,78.17681716702646,78.17681716702646,78.53300379199209,x,1,0.3534091240144335,None,,,,,3,001,2025-10-01_11h45.19.951, Motor Sequence Learning,,2025.1.1,None,2025-10-01 11h46.48.403798 +0530,
150,v,33,1,8,v,1,0.4099442909937352,None,8,1,33,1,,,,,78.54283854202367,,78.53350391698768,78.54283854202367,79.53311091702199,79.53311091702199,79.53311091702199,79.53311091702199,79.53311091702199,80.53225362498779,80.53225362498779,80.94560570799513,v,1,0.4099442909937352,None,,,,,3,001,2025-10-01_11h45.19.951, Motor Sequence Learning,,2025.1.1,None,2025-10-01 11h46.48.403798 +0530,
50,c,34,2,8,c,1,0.23077699897112325,None,8,2,34,2,,,,,80.95556529198075,,80.94630466698436,80.95556529198075,81.9433596250019,81.9433596250019,81.9433596250019,81.9433596250019,81.94790341699263,82.94344000000274,82.94344000000274,83.17881708301138,c,1,0.23077699897112325,None,,,,,3,001,2025-10-01_11h45.19.951, Motor Sequence Learning,,2025.1.1,None,2025-10-01 11h46.48.403798 +0530,
-150,z,35,3,8,z,1,0.3394683329970576,None,8,3,35,3,,,,,83.18900050001685,,83.17966874997364,83.18900050001685,84.17685341701144,84.17685341701144,84.17685341701144,84.17685341701144,84.18163054197794,85.17670379200717,85.17670379200717,85.52907325001433,z,1,0.3394683329970576,None,,,,,3,001,2025-10-01_11h45.19.951, Motor Sequence Learning,,2025.1.1,None,2025-10-01 11h46.48.403798 +0530,
-50,x,36,0,9,x,1,0.2983419999945909,None,9,0,36,0,,,,,85.53896254202118,,85.52975679200608,85.53896254202118,86.52678137499606,86.52678137499606,86.52678137499606,86.52678137499606,86.53210066701286,87.52669675002107,87.52669675002107,87.82829070801381,x,1,0.2983419999945909,None,,,,,3,001,2025-10-01_11h45.19.951, Motor Sequence Learning,,2025.1.1,None,2025-10-01 11h46.48.403798 +0530,
150,v,37,1,9,v,1,0.21613458200590685,None,9,1,37,1,,,,,87.83793666702695,,87.82884337502765,87.83793666702695,88.82668483298039,88.82668483298039,88.82668483298039,88.82668483298039,88.83169320801971,89.82684995798627,89.82684995798627,90.04549175000284,v,1,0.21613458200590685,None,,,,,3,001,2025-10-01_11h45.19.951, Motor Sequence Learning,,2025.1.1,None,2025-10-01 11h46.48.403798 +0530,
50,c,38,2,9,c,1,0.27064937504474074,None,9,2,38,2,,,,,90.05590958299581,,90.04634862497915,90.05590958299581,91.04357954201987,91.04357954201987,91.04357954201987,91.04357954201987,91.04876587499166,92.04341720801312,92.04341720801312,92.31580749998102,c,1,0.27064937504474074,None,,,,,3,001,2025-10-01_11h45.19.951, Motor Sequence Learning,,2025.1.1,None,2025-10-01 11h46.48.403798 +0530,
-150,z,39,3,9,z,1,0.23082641599467024,None,9,3,39,3,,,,,92.32602054200834,,92.31629483297002,92.32602054200834,93.3147919580224,93.3147919580224,93.3147919580224,93.3147919580224,93.3147919580224,94.3151337080053,94.3151337080053,94.5484796250239,z,1,0.23082641599467024,None,,,,,3,001,2025-10-01_11h45.19.951, Motor Sequence Learning,,2025.1.1,None,2025-10-01 11h46.48.403798 +0530,
-50,x,40,0,10,x,1,0.2825589579879306,None,10,0,40,0,,,,,94.55936841701623,,94.5489950000192,94.55936841701623,95.54344254202442,95.54344254202442,95.54344254202442,95.54344254202442,95.54767258302309,96.54928533302154,96.54928533302154,96.83365658298135,x,1,0.2825589579879306,None,,,,,3,001,2025-10-01_11h45.19.951, Motor Sequence Learning,,2025.1.1,None,2025-10-01 11h46.48.403798 +0530,
150,v,41,1,10,v,1,0.2743060829816386,None,10,1,41,1,,,,,96.84301258297637,,96.83415191702079,96.84301258297637,97.83247000002302,97.83247000002302,97.83247000002302,97.83247000002302,97.83247000002302,98.83254020800814,98.83254020800814,99.11177037499147,v,1,0.2743060829816386,None,,,,,3,001,2025-10-01_11h45.19.951, Motor Sequence Learning,,2025.1.1,None,2025-10-01 11h46.48.403798 +0530,
50,c,42,2,10,c,1,0.2436749580083415,None,10,2,42,2,,,,,99.12127308297204,,99.11236845800886,99.12127308297204,100.11038899997948,100.11038899997948,100.11038899997948,100.11038899997948,100.11522408301244,101.11008304200368,101.11008304200368,101.3614988750196,c,1,0.2436749580083415,None,,,,,3,001,2025-10-01_11h45.19.951, Motor Sequence Learning,,2025.1.1,None,2025-10-01 11h46.48.403798 +0530,
-150,z,43,3,10,z,1,0.2906738740275614,None,10,3,43,3,,,,,101.37139724998269,,101.36210979201132,101.37139724998269,102.36011141701601,102.36011141701601,102.36011141701601,102.36011141701601,102.36429458297789,103.36001941701397,103.36001941701397,103.66187412501313,z,1,0.2906738740275614,None,,,,,3,001,2025-10-01_11h45.19.951, Motor Sequence Learning,,2025.1.1,None,2025-10-01 11h46.48.403798 +0530,
-50,x,44,0,11,x,1,0.29461595800239593,None,11,0,44,0,,,,,103.67171991697978,,103.66256754199276,103.67171991697978,104.66054604202509,104.66054604202509,104.66054604202509,104.66054604202509,104.6648131670081,105.66016249998938,105.66016249998938,105.9619135420071,x,1,0.29461595800239593,None,,,,,3,001,2025-10-01_11h45.19.951, Motor Sequence Learning,,2025.1.1,None,2025-10-01 11h46.48.403798 +0530,
150,v,45,1,11,v,1,0.2107311660074629,None,11,1,45,1,,,,,105.9718613330042,,105.9624889579718,105.9718613330042,106.95996345800813,106.95996345800813,106.95996345800813,106.95996345800813,106.9649385419907,107.96003479202045,107.96003479202045,108.17851412500022,v,1,0.2107311660074629,None,,,,,3,001,2025-10-01_11h45.19.951, Motor Sequence Learning,,2025.1.1,None,2025-10-01 11h46.48.403798 +0530,
50,c,46,2,11,c,1,0.25166570802684873,None,11,2,46,2,,,,,108.18825345800724,,108.1790669169859,108.18825345800724,109.17677962500602,109.17677962500602,109.17677962500602,109.17677962500602,109.18119216698688,110.17686287499964,110.17686287499964,110.43354762502713,c,1,0.25166570802684873,None,,,,,3,001,2025-10-01_11h45.19.951, Motor Sequence Learning,,2025.1.1,None,2025-10-01 11h46.48.403798 +0530,
-150,z,47,3,11,z,1,0.281167707988061,None,11,3,47,3,,,,,110.44320095801959,,110.43404783302685,110.44320095801959,111.43226745800348,111.43226745800348,111.43226745800348,111.43226745800348,111.43226745800348,112.43239120801445,112.43239120801445,112.71621795801912,z,1,0.281167707988061,None,,,,,3,001,2025-10-01_11h45.19.951, Motor Sequence Learning,,2025.1.1,None,2025-10-01 11h46.48.403798 +0530,
-50,x,48,0,12,x,1,0.3131109160021879,None,12,0,48,0,,,,,112.72600020800019,,112.7167298750137,112.72600020800019,113.71563616697676,113.71563616697676,113.71563616697676,113.71563616697676,113.71563616697676,114.71544437500415,114.71544437500415,115.03389562497614,x,1,0.3131109160021879,None,,,,,3,001,2025-10-01_11h45.19.951, Motor Sequence Learning,,2025.1.1,None,2025-10-01 11h46.48.403798 +0530,
150,v,49,1,12,v,1,0.2738993330276571,None,12,1,49,1,,,,,115.06022520799888,,115.03440229198895,115.06022520799888,116.03179820801597,116.03179820801597,116.03179820801597,116.03179820801597,116.0480593329994,117.0326927920105,117.0326927920105,117.31202658300754,v,1,0.2738993330276571,None,,,,,3,001,2025-10-01_11h45.19.951, Motor Sequence Learning,,2025.1.1,None,2025-10-01 11h46.48.403798 +0530,
50,c,50,2,12,c,1,0.24239258299348876,None,12,2,50,2,,,,,117.32210520800436,,117.31271166697843,117.32210520800436,118.30996983300429,118.30996983300429,118.30996983300429,118.30996983300429,118.3145457499777,119.31005670799641,119.31005670799641,119.56210058298893,c,1,0.24239258299348876,None,,,,,3,001,2025-10-01_11h45.19.951, Motor Sequence Learning,,2025.1.1,None,2025-10-01 11h46.48.403798 +0530,
-150,z,51,3,12,z,1,0.30646720802178606,None,12,3,51,3,,,,,119.57166766701266,,119.56278029200621,119.57166766701266,120.56002337497193,120.56002337497193,120.56002337497193,120.56002337497193,120.56414625002071,121.55993099999614,121.55993099999614,121.8784300829866,z,1,0.30646720802178606,None,,,,,3,001,2025-10-01_11h45.19.951, Motor Sequence Learning,,2025.1.1,None,2025-10-01 11h46.48.403798 +0530,
-50,x,52,0,13,lcommand,0,0.2995474159833975,None,13,0,52,0,,,,,121.88822587497998,,121.87901662499644,121.88822587497998,122.87676970800385,122.87676970800385,122.87676970800385,122.87676970800385,122.88217858300777,123.87667387502734,123.87667387502734,124.17824879201362,lcommand,0,0.2995474159833975,None,,,,,3,001,2025-10-01_11h45.19.951, Motor Sequence Learning,,2025.1.1,None,2025-10-01 11h46.48.403798 +0530,
150,v,53,1,13,v,1,0.49149412498809397,None,13,1,53,1,,,,,124.18561991699971,,124.1788514169748,124.18561991699971,125.17664562497521,125.17664562497521,125.17664562497521,125.17664562497521,125.18190829199739,126.17675487499218,126.17675487499218,126.6784606250003,v,1,0.49149412498809397,None,,,,,3,001,2025-10-01_11h45.19.951, Motor Sequence Learning,,2025.1.1,None,2025-10-01 11h46.48.403798 +0530,
50,c,54,2,13,c,1,0.2654382499749772,None,13,2,54,2,,,,,126.6885029579862,,126.6789996669977,126.6885029579862,127.676600124978,127.676600124978,127.676600124978,127.676600124978,127.68083291698713,128.67668174998835,128.67668174998835,128.94498441700125,c,1,0.2654382499749772,None,,,,,3,001,2025-10-01_11h45.19.951, Motor Sequence Learning,,2025.1.1,None,2025-10-01 11h46.48.403798 +0530,
-150,z,55,3,13,z,1,0.45974174997536466,None,13,3,55,3,,,,,128.9551993330242,,128.94571724999696,128.9551993330242,129.94332775002113,129.94332775002113,129.94332775002113,129.94332775002113,129.94897512497846,130.94341079198057,130.94341079198057,131.41175708302762,z,1,0.45974174997536466,None,,,,,3,001,2025-10-01_11h45.19.951, Motor Sequence Learning,,2025.1.1,None,2025-10-01 11h46.48.403798 +0530,
-50,x,56,0,14,x,1,0.259112500003539,None,14,0,56,0,,,,,131.42165820801165,,131.4123307080008,131.42165820801165,132.4100038749748,132.4100038749748,132.4100038749748,132.4100038749748,132.41515533300117,133.4100532499724,133.4100532499724,133.6784156250069,x,1,0.259112500003539,None,,,,,3,001,2025-10-01_11h45.19.951, Motor Sequence Learning,,2025.1.1,None,2025-10-01 11h46.48.403798 +0530,
150,v,57,1,14,v,1,0.3462764160358347,None,14,1,57,1,,,,,133.68833595799515,,133.67897054197965,133.68833595799515,134.67663054197328,134.67663054197328,134.67663054197328,134.67663054197328,134.68167999997968,135.67674237501342,135.67674237501342,136.0283309170045,v,1,0.3462764160358347,None,,,,,3,001,2025-10-01_11h45.19.951, Motor Sequence Learning,,2025.1.1,None,2025-10-01 11h46.48.403798 +0530,
50,c,58,2,14,c,1,0.27230037399567664,None,14,2,58,2,,,,,136.03831683297176,,136.02895983302733,136.03831683297176,137.02691262500593,137.02691262500593,137.02691262500593,137.02691262500593,137.03320587502094,138.02671779197408,138.02671779197408,138.31217341701267,c,1,0.27230037399567664,None,,,,,3,001,2025-10-01_11h45.19.951, Motor Sequence Learning,,2025.1.1,None,2025-10-01 11h46.48.403798 +0530,
-150,z,59,3,14,z,1,0.2490036659874022,None,14,3,59,3,,,,,138.32251779199578,,138.3131222500233,138.32251779199578,139.30995525000617,139.30995525000617,139.30995525000617,139.30995525000617,139.3153365830076,140.30999224999687,140.30999224999687,140.56238000001758,z,1,0.2490036659874022,None,,,,,3,001,2025-10-01_11h45.19.951, Motor Sequence Learning,,2025.1.1,None,2025-10-01 11h46.48.403798 +0530,
-50,x,60,0,15,x,1,0.31303162401309237,None,15,0,60,0,,,,,140.57256762497127,,140.56317345798016,140.57256762497127,141.56000720802695,141.56000720802695,141.56000720802695,141.56000720802695,141.56483054201817,142.55989820801187,142.55989820801187,142.87894283299102,x,1,0.31303162401309237,None,,,,,3,001,2025-10-01_11h45.19.951, Motor Sequence Learning,,2025.1.1,None,2025-10-01 11h46.48.403798 +0530,
150,v,61,1,15,v,1,0.21428549895063043,None,15,1,61,1,,,,,142.88889037497574,,142.87959645799128,142.88889037497574,143.87654966698028,143.87654966698028,143.87654966698028,143.87654966698028,143.88116704201093,144.87654508301057,144.87654508301057,145.0951962500112,v,1,0.21428549895063043,None,,,,,3,001,2025-10-01_11h45.19.951, Motor Sequence Learning,,2025.1.1,None,2025-10-01 11h46.48.403798 +0530,
50,c,62,2,15,c,1,0.2855439569684677,None,15,2,62,2,,,,,145.10529412498,,145.0958872080082,145.10529412498,146.0933405419928,146.0933405419928,146.0933405419928,146.0933405419928,146.09860808297526,147.09324374998687,147.09324374998687,147.38317004201235,c,1,0.2855439569684677,None,,,,,3,001,2025-10-01_11h45.19.951, Motor Sequence Learning,,2025.1.1,None,2025-10-01 11h46.48.403798 +0530,
-150,z,63,3,15,z,1,0.2873787499847822,None,15,3,63,3,,,,,147.39266387501266,,147.3837067920249,147.39266387501266,148.38143537502037,148.38143537502037,148.38143537502037,148.38143537502037,148.38143537502037,149.38241487496998,149.38241487496998,149.6781947920099,z,1,0.2873787499847822,None,,,,,3,001,2025-10-01_11h45.19.951, Motor Sequence Learning,,2025.1.1,None,2025-10-01 11h46.48.403798 +0530,
-50,x,64,0,16,x,1,0.2770217080251314,None,16,0,64,0,,,,,149.68800320802256,,149.67878995800857,149.68800320802256,150.67663895798614,150.67663895798614,150.67663895798614,150.67663895798614,150.6817537919851,151.67666941700736,151.67666941700736,151.96167987497756,x,1,0.2770217080251314,None,,,,,3,001,2025-10-01_11h45.19.951, Motor Sequence Learning,,2025.1.1,None,2025-10-01 11h46.48.403798 +0530,
150,v,65,1,16,v,1,0.20774570701178163,None,16,1,65,1,,,,,151.97152633301448,,151.9622369169956,151.97152633301448,152.96005133300787,152.96005133300787,152.96005133300787,152.96005133300787,152.96527649997734,153.95995408302406,153.95995408302406,154.17866704199696,v,1,0.20774570701178163,None,,,,,3,001,2025-10-01_11h45.19.951, Motor Sequence Learning,,2025.1.1,None,2025-10-01 11h46.48.403798 +0530,
50,c,66,2,16,c,1,0.28502704098355025,None,16,2,66,2,,,,,154.1890690830187,,154.1795931669767,154.1890690830187,155.17671291698935,155.17671291698935,155.17671291698935,155.17671291698935,155.18187562498497,156.17660825001076,156.17660825001076,156.46648533298867,c,1,0.28502704098355025,None,,,,,3,001,2025-10-01_11h45.19.951, Motor Sequence Learning,,2025.1.1,None,2025-10-01 11h46.48.403798 +0530,
-150,z,67,3,16,z,1,0.3211520410259254,None,16,3,67,3,,,,,156.47584329202073,,156.4670121250092,156.47584329202073,157.46588087501004,157.46588087501004,157.46588087501004,157.46588087501004,157.46588087501004,158.4664319580188,158.4664319580188,158.7948909170227,z,1,0.3211520410259254,None,,,,,3,001,2025-10-01_11h45.19.951, Motor Sequence Learning,,2025.1.1,None,2025-10-01 11h46.48.403798 +0530,
-50,x,68,0,17,x,1,0.2972852069651708,None,17,0,68,0,,,,,158.80437475000508,,158.79546670801938,158.80437475000508,159.79333491699072,159.79333491699072,159.79333491699072,159.79333491699072,159.7994629580062,160.7932558329776,160.7932558329776,161.09530112502398,x,1,0.2972852069651708,None,,,,,3,001,2025-10-01_11h45.19.951, Motor Sequence Learning,,2025.1.1,None,2025-10-01 11h46.48.403798 +0530,
150,v,69,1,17,v,1,0.292506790952757,None,17,1,69,1,,,,,161.1053752080188,,161.09593437501462,161.1053752080188,162.09326187497936,162.09326187497936,162.09326187497936,162.09326187497936,162.09804508299567,163.0932982499944,163.0932982499944,163.39532725000754,v,1,0.292506790952757,None,,,,,3,001,2025-10-01_11h45.19.951, Motor Sequence Learning,,2025.1.1,None,2025-10-01 11h46.48.403798 +0530,
50,c,70,2,17,c,1,0.3230436659650877,None,17,2,70,2,,,,,163.40550520800753,,163.39620708301663,163.40550520800753,164.39338404202135,164.39338404202135,164.39338404202135,164.39338404202135,164.39864508301252,165.39322445797734,165.39322445797734,165.72891295800218,c,1,0.3230436659650877,None,,,,,3,001,2025-10-01_11h45.19.951, Motor Sequence Learning,,2025.1.1,None,2025-10-01 11h46.48.403798 +0530,
-150,z,71,3,17,z,1,0.30477183300536126,None,17,3,71,3,,,,,165.73964070802322,,165.72949037497165,165.73964070802322,166.72650604200317,166.72650604200317,166.72650604200317,166.72650604200317,166.73113804199966,167.72661487502046,167.72661487502046,168.04534087498905,z,1,0.30477183300536126,None,,,,,3,001,2025-10-01_11h45.19.951, Motor Sequence Learning,,2025.1.1,None,2025-10-01 11h46.48.403798 +0530,
-50,x,72,0,18,x,1,0.3580975409713574,None,18,0,72,0,,,,,168.05583083297824,,168.04630362498574,168.05583083297824,169.04328391700983,169.04328391700983,169.04328391700983,169.04328391700983,169.04864783299854,170.04316204198403,170.04316204198403,170.41165916697355,x,1,0.3580975409713574,None,,,,,3,001,2025-10-01_11h45.19.951, Motor Sequence Learning,,2025.1.1,None,2025-10-01 11h46.48.403798 +0530,
150,v,73,1,18,v,1,0.2773412910173647,None,18,1,73,1,,,,,170.4212945830077,,170.4122186669847,170.4212945830077,171.409865292022,171.409865292022,171.409865292022,171.409865292022,171.414435166982,172.4099492499954,172.4099492499954,172.69513250002638,v,1,0.2773412910173647,None,,,,,3,001,2025-10-01_11h45.19.951, Motor Sequence Learning,,2025.1.1,None,2025-10-01 11h46.48.403798 +0530,
50,c,74,2,18,c,1,0.2570360410027206,None,18,2,74,2,,,,,172.70477904198924,,172.69569625001168,172.70477904198924,173.69331720797345,173.69331720797345,173.69331720797345,173.69331720797345,173.69854708301136,174.69320745801087,174.69320745801087,174.96196975000203,c,1,0.2570360410027206,None,,,,,3,001,2025-10-01_11h45.19.951, Motor Sequence Learning,,2025.1.1,None,2025-10-01 11h46.48.403798 +0530,
-150,z,75,3,18,z,1,0.3213462079875171,None,18,3,75,3,,,,,174.97190933302045,,174.96253616700415,174.97190933302045,175.95898312499048,175.95898312499048,175.95898312499048,175.95898312499048,175.96137158299098,176.95983837498352,176.95983837498352,177.2832829169929,z,1,0.3213462079875171,None,,,,,3,001,2025-10-01_11h45.19.951, Motor Sequence Learning,,2025.1.1,None,2025-10-01 11h46.48.403798 +0530,
-50,x,76,0,19,x,1,0.1290932489791885,None,19,0,76,0,,,,,177.29297241702443,,177.2837792080245,177.29297241702443,178.28239545802353,178.28239545802353,178.28239545802353,178.28239545802353,178.28239545802353,179.28303258301457,179.28303258301457,179.41727087501204,x,1,0.1290932489791885,None,,,,,3,001,2025-10-01_11h45.19.951, Motor Sequence Learning,,2025.1.1,None,2025-10-01 11h46.48.403798 +0530,
150,v,77,1,19,v,1,0.2928017490194179,None,19,1,77,1,,,,,179.44348887499655,,179.4178287499817,179.44348887499655,180.41708562499844,180.41708562499844,180.41708562499844,180.41708562499844,180.43089929199778,181.41632587497588,181.41632587497588,181.7120821250137,v,1,0.2928017490194179,None,,,,,3,001,2025-10-01_11h45.19.951, Motor Sequence Learning,,2025.1.1,None,2025-10-01 11h46.48.403798 +0530,
50,c,78,2,19,c,1,0.2770622910466045,None,19,2,78,2,,,,,181.72253158298554,,181.71277437498793,181.72253158298554,182.70978841697797,182.70978841697797,182.70978841697797,182.70978841697797,182.71441070799483,183.70987416699063,183.70987416699063,183.9950682920171,c,1,0.2770622910466045,None,,,,,3,001,2025-10-01_11h45.19.951, Motor Sequence Learning,,2025.1.1,None,2025-10-01 11h46.48.403798 +0530,
-150,z,79,3,19,z,1,0.30277883302187547,None,19,3,79,3,,,,,184.00499283301178,,183.99571787501918,184.00499283301178,184.99329158297041,184.99329158297041,184.99329158297041,184.99329158297041,184.9981310829753,185.99314749997575,185.99314749997575,186.30061187501997,z,1,0.30277883302187547,None,,,,,3,001,2025-10-01_11h45.19.951, Motor Sequence Learning,,2025.1.1,None,2025-10-01 11h46.48.403798 +0530,
-50,x,80,0,20,x,1,0.27258483303012326,None,20,0,80,0,,,,,186.32673308299854,,186.30110112502007,186.32673308299854,187.2984051249805,187.2984051249805,187.2984051249805,187.2984051249805,187.3150819580187,188.29944616701687,188.29944616701687,188.57824370800517,x,1,0.27258483303012326,None,,,,,3,001,2025-10-01_11h45.19.951, Motor Sequence Learning,,2025.1.1,None,2025-10-01 11h46.48.403798 +0530,
150,v,81,1,20,v,1,0.27797699999064207,None,20,1,81,1,,,,,188.588193167001,,188.57878350000829,188.588193167001,189.57644229201833,189.57644229201833,189.57644229201833,189.57644229201833,189.58100649999687,190.57697220798582,190.57697220798582,190.861664749973,v,1,0.27797699999064207,None,,,,,3,001,2025-10-01_11h45.19.951, Motor Sequence Learning,,2025.1.1,None,2025-10-01 11h46.48.403798 +0530,
50,c,82,2,20,c,1,0.284916415985208,None,20,2,82,2,,,,,190.8716988749802,,190.86225070798537,190.8716988749802,191.86001966701588,191.86001966701588,191.86001966701588,191.86001966701588,191.86570066702552,192.85986149997916,192.85986149997916,193.14964825002244,c,1,0.284916415985208,None,,,,,3,001,2025-10-01_11h45.19.951, Motor Sequence Learning,,2025.1.1,None,2025-10-01 11h46.48.403798 +0530,
-150,z,83,3,20,z,1,0.2910129159572534,None,20,3,83,3,,,,,193.1591027919785,,193.15016654197825,193.1591027919785,194.14962579199346,194.14962579199346,194.14962579199346,194.14962579199346,194.14962579199346,195.14887583302334,195.14887583302334,195.44512445799774,z,1,0.2910129159572534,None,,,,,3,001,2025-10-01_11h45.19.951, Motor Sequence Learning,,2025.1.1,None,2025-10-01 11h46.48.403798 +0530,
-50,x,84,0,21,x,1,0.302356707979925,None,21,0,84,0,,,,,195.45443854201585,,195.44566870800918,195.45443854201585,196.44324558298104,196.44324558298104,196.44324558298104,196.44324558298104,196.4480303329765,197.44331070798216,197.44331070798216,197.74911212502047,x,1,0.302356707979925,None,,,,,3,001,2025-10-01_11h45.19.951, Motor Sequence Learning,,2025.1.1,None,2025-10-01 11h46.48.403798 +0530,
150,v,85,1,21,v,1,0.2452944579999894,None,21,1,85,1,,,,,197.7589742920245,,197.74963883298915,197.7589742920245,198.7482790829963,198.7482790829963,198.7482790829963,198.7482790829963,198.7482790829963,199.749365375028,199.749365375028,200.00051491701743,v,1,0.2452944579999894,None,,,,,3,001,2025-10-01_11h45.19.951, Motor Sequence Learning,,2025.1.1,None,2025-10-01 11h46.48.403798 +0530,
50,c,86,2,21,c,1,0.29816533299162984,None,21,2,86,2,,,,,200.0095056249993,,200.0010370829841,200.0095056249993,200.99972787499428,200.99972787499428,200.99972787499428,200.99972787499428,200.99972787499428,201.9994268330047,201.9994268330047,202.29975333297625,c,1,0.29816533299162984,None,,,,,3,001,2025-10-01_11h45.19.951, Motor Sequence Learning,,2025.1.1,None,2025-10-01 11h46.48.403798 +0530,
-150,z,87,3,21,z,1,0.24831533199176192,None,21,3,87,3,,,,,202.3091850419878,,202.30027666699607,202.3091850419878,203.2985756249982,203.2985756249982,203.2985756249982,203.2985756249982,203.2985756249982,204.29931008297717,204.29931008297717,204.5494758330169,z,1,0.24831533199176192,None,,,,,3,001,2025-10-01_11h45.19.951, Motor Sequence Learning,,2025.1.1,None,2025-10-01 11h46.48.403798 +0530,
-50,x,88,0,22,x,1,0.31041908299084753,None,22,0,88,0,,,,,204.55905220797285,,204.54997699998785,204.55905220797285,205.54975766700227,205.54975766700227,205.54975766700227,205.54975766700227,205.54975766700227,206.5481850830256,206.5481850830256,206.86156841699267,x,1,0.31041908299084753,None,,,,,3,001,2025-10-01_11h45.19.951, Motor Sequence Learning,,2025.1.1,None,2025-10-01 11h46.48.403798 +0530,
150,v,89,1,22,v,1,0.28769179101800546,None,22,1,89,1,,,,,206.871137042006,,206.86224716698052,206.871137042006,207.85984845797066,207.85984845797066,207.85984845797066,207.85984845797066,207.86448695801664,208.8598134579952,208.8598134579952,209.1500312499702,v,1,0.28769179101800546,None,,,,,3,001,2025-10-01_11h45.19.951, Motor Sequence Learning,,2025.1.1,None,2025-10-01 11h46.48.403798 +0530,
50,c,90,2,22,c,1,0.2920851659728214,None,22,2,90,2,,,,,209.17671929200878,,209.15054866700666,209.17671929200878,210.1488662919728,210.1488662919728,210.1488662919728,210.1488662919728,210.16433570801746,211.14941424998688,211.14941424998688,211.4453449579887,c,1,0.2920851659728214,None,,,,,3,001,2025-10-01_11h45.19.951, Motor Sequence Learning,,2025.1.1,None,2025-10-01 11h46.48.403798 +0530,
-150,z,91,3,22,z,1,0.2562467069947161,None,22,3,91,3,,,,,211.45478174998425,,211.44599600002402,211.45478174998425,212.44314275000943,212.44314275000943,212.44314275000943,212.44314275000943,212.44827791699208,213.4431416669977,213.4431416669977,213.7117215829785,z,1,0.2562467069947161,None,,,,,3,001,2025-10-01_11h45.19.951, Motor Sequence Learning,,2025.1.1,None,2025-10-01 11h46.48.403798 +0530,
-50,x,92,0,23,x,1,0.27751937397988513,None,23,0,92,0,,,,,213.72103666700423,,213.71227920800447,213.72103666700423,214.70977345801657,214.70977345801657,214.70977345801657,214.70977345801657,214.71412683301605,215.70993512502173,215.70993512502173,215.9949454999878,x,1,0.27751937397988513,None,,,,,3,001,2025-10-01_11h45.19.951, Motor Sequence Learning,,2025.1.1,None,2025-10-01 11h46.48.403798 +0530,
150,v,93,1,23,v,1,0.3382113319821656,None,23,1,93,1,,,,,216.0043164169765,,215.99563733302057,216.0043164169765,216.99325566698099,216.99325566698099,216.99325566698099,216.99325566698099,216.99890887498623,217.99309424997773,217.99309424997773,218.34275879198685,v,1,0.3382113319821656,None,,,,,3,001,2025-10-01_11h45.19.951, Motor Sequence Learning,,2025.1.1,None,2025-10-01 11h46.48.403798 +0530,
50,c,94,2,23,c,1,0.4353603739873506,None,23,2,94,2,,,,,218.34696433297358,,218.3432391670067,218.34696433297358,219.33369045797735,219.33369045797735,219.33369045797735,219.33369045797735,219.34303987497697,220.33195254200837,220.33195254200837,220.77827108302154,c,1,0.4353603739873506,None,,,,,3,001,2025-10-01_11h45.19.951, Motor Sequence Learning,,2025.1.1,None,2025-10-01 11h46.48.403798 +0530,
-150,z,95,3,23,z,1,0.2728379159816541,None,23,3,95,3,,,,,220.7874656249769,,220.77883329201723,220.7874656249769,221.77646220801398,221.77646220801398,221.77646220801398,221.77646220801398,221.78170024999417,222.77640245802468,222.77640245802468,223.06217937497422,z,1,0.2728379159816541,None,,,,,3,001,2025-10-01_11h45.19.951, Motor Sequence Learning,,2025.1.1,None,2025-10-01 11h46.48.403798 +0530,
-50,x,96,0,24,x,1,0.39242099900729954,None,24,0,96,0,,,,,223.07196924998425,,223.06283262500074,223.07196924998425,224.05980120797176,224.05980120797176,224.05980120797176,224.05980120797176,224.06397854199167,225.0597446669708,225.0597446669708,225.46162662497954,x,1,0.39242099900729954,None,,,,,3,001,2025-10-01_11h45.19.951, Motor Sequence Learning,,2025.1.1,None,2025-10-01 11h46.48.403798 +0530,
150,v,97,1,24,v,1,0.28430587495677173,None,24,1,97,1,,,,,225.4715256249765,,225.46212799998466,225.4715256249765,226.4597945419955,226.4597945419955,226.4597945419955,226.4597945419955,226.46401437500026,227.45972020801855,227.45972020801855,227.74987362499814,v,1,0.28430587495677173,None,,,,,3,001,2025-10-01_11h45.19.951, Motor Sequence Learning,,2025.1.1,None,2025-10-01 11h46.48.403798 +0530,
50,c,98,2,24,c,1,0.3081499160034582,None,24,2,98,2,,,,,227.7593523329706,,227.75036895798985,227.7593523329706,228.74945858301362,228.74945858301362,228.74945858301362,228.74945858301362,228.74945858301362,229.74916487501469,229.74916487501469,230.06180304201553,c,1,0.3081499160034582,None,,,,,3,001,2025-10-01_11h45.19.951, Motor Sequence Learning,,2025.1.1,None,2025-10-01 11h46.48.403798 +0530,
-150,z,99,3,24,z,1,0.43125233304454014,None,24,3,99,3,,,,,230.07202083297307,,230.06243408302544,230.07202083297307,231.0599076669896,231.0599076669896,231.0599076669896,231.0599076669896,231.06623587501235,232.0597511670203,232.0597511670203,232.49495812499663,z,1,0.43125233304454014,None,,,,,3,001,2025-10-01_11h45.19.951, Motor Sequence Learning,,2025.1.1,None,2025-10-01 11h46.48.403798 +0530,
-50,x,100,0,25,x,1,0.3249940830282867,None,25,0,100,0,,,,,232.50482425000519,,232.49547429202357,232.50482425000519,233.49314437498106,233.49314437498106,233.49314437498106,233.49314437498106,233.49835750000784,234.49302325001918,234.49302325001918,234.82872225000756,x,1,0.3249940830282867,None,,,,,3,001,2025-10-01_11h45.19.951, Motor Sequence Learning,,2025.1.1,None,2025-10-01 11h46.48.403798 +0530,
150,v,101,1,25,v,1,0.4275863739894703,None,25,1,101,1,,,,,234.83886954199988,,234.8293615829898,234.83886954199988,235.82650466699852,235.82650466699852,235.82650466699852,235.82650466699852,235.8329722500057,236.82630304200575,236.82630304200575,237.2620200419915,v,1,0.4275863739894703,None,,,,,3,001,2025-10-01_11h45.19.951, Motor Sequence Learning,,2025.1.1,None,2025-10-01 11h46.48.403798 +0530,
50,c,102,2,25,c,1,0.3131068740040064,None,25,2,102,2,,,,,237.27210462500807,,237.26270479202503,237.27210462500807,238.25977620802587,238.25977620802587,238.25977620802587,238.25977620802587,238.26539241697174,239.25984195800265,239.25984195800265,239.57868379197316,c,1,0.3131068740040064,None,,,,,3,001,2025-10-01_11h45.19.951, Motor Sequence Learning,,2025.1.1,None,2025-10-01 11h46.48.403798 +0530,
-150,z,103,3,25,z,1,0.24446645798161626,None,25,3,103,3,,,,,239.58860941702733,,239.57932974997675,239.58860941702733,240.57648258301197,240.57648258301197,240.57648258301197,240.57648258301197,240.5819105419796,241.57634837500518,241.57634837500518,241.82840200001374,z,1,0.24446645798161626,None,,,,,3,001,2025-10-01_11h45.19.951, Motor Sequence Learning,,2025.1.1,None,2025-10-01 11h46.48.403798 +0530,
-50,x,104,0,26,x,1,0.28047274897107854,None,26,0,104,0,,,,,241.83824358298443,,241.82905524998205,241.83824358298443,242.82650712499162,242.82650712499162,242.82650712499162,242.82650712499162,242.83150754199596,243.82633616699604,243.82633616699604,244.11182937497506,x,1,0.28047274897107854,None,,,,,3,001,2025-10-01_11h45.19.951, Motor Sequence Learning,,2025.1.1,None,2025-10-01 11h46.48.403798 +0530,
150,v,105,1,26,v,1,0.30094929097685963,None,26,1,105,1,,,,,244.1221960830153,,244.11272083298536,244.1221960830153,245.1098635829985,245.1098635829985,245.1098635829985,245.1098635829985,245.11479641700862,246.1097370419884,246.1097370419884,246.41688966698712,v,1,0.30094929097685963,None,,,,,3,001,2025-10-01_11h45.19.951, Motor Sequence Learning,,2025.1.1,None,2025-10-01 11h46.48.403798 +0530,
50,c,106,2,26,c,1,0.2958144990261644,None,26,2,106,2,,,,,246.44332949997624,,246.41745129198534,246.44332949997624,247.41496720799478,247.41496720799478,247.41496720799478,247.41496720799478,247.4313577080029,248.4157578329905,248.4157578329905,248.71620354201877,c,1,0.2958144990261644,None,,,,,3,001,2025-10-01_11h45.19.951, Motor Sequence Learning,,2025.1.1,None,2025-10-01 11h46.48.403798 +0530,
-150,z,107,3,26,z,1,0.28871262399479747,None,26,3,107,3,,,,,248.72590137500083,,248.71672387502622,248.72590137500083,249.7151121670031,249.7151121670031,249.7151121670031,249.7151121670031,249.7151121670031,250.7158899999922,250.7158899999922,251.01158704201225,z,1,0.28871262399479747,None,,,,,3,001,2025-10-01_11h45.19.951, Motor Sequence Learning,,2025.1.1,None,2025-10-01 11h46.48.403798 +0530,
-50,x,108,0,27,x,1,0.26096458302345127,None,27,0,108,0,,,,,251.02141599997412,,251.01218441699166,251.02141599997412,252.00980291701853,252.00980291701853,252.00980291701853,252.00980291701853,252.0149799999781,253.00960158300586,253.00960158300586,253.27858691697475,x,1,0.26096458302345127,None,,,,,3,001,2025-10-01_11h45.19.951, Motor Sequence Learning,,2025.1.1,None,2025-10-01 11h46.48.403798 +0530,
150,v,109,1,27,v,1,0.3821897079469636,None,27,1,109,1,,,,,253.28840962500544,,253.27910379198147,253.28840962500544,254.2764675419894,254.2764675419894,254.2764675419894,254.2764675419894,254.2816751250066,255.27633916697232,255.27633916697232,255.66151979198912,v,1,0.3821897079469636,None,,,,,3,001,2025-10-01_11h45.19.951, Motor Sequence Learning,,2025.1.1,None,2025-10-01 11h46.48.403798 +0530,
50,c,110,2,27,c,1,0.26579654100351036,None,27,2,110,2,,,,,255.67131870798767,,255.6620503750164,255.67131870798767,256.6598327080137,256.6598327080137,256.6598327080137,256.6598327080137,256.6647610000218,257.6597315829713,257.6597315829713,257.9281759579899,c,1,0.26579654100351036,None,,,,,3,001,2025-10-01_11h45.19.951, Motor Sequence Learning,,2025.1.1,None,2025-10-01 11h46.48.403798 +0530,
-150,z,111,3,27,z,1,0.2840657909982838,None,27,3,111,3,,,,,257.93823241698556,,257.9287276249961,257.93823241698556,258.9268802080187,258.9268802080187,258.9268802080187,258.9268802080187,258.9328340420034,259.9264027919853,259.9264027919853,260.21684558299603,z,1,0.2840657909982838,None,,,,,3,001,2025-10-01_11h45.19.951, Motor Sequence Learning,,2025.1.1,None,2025-10-01 11h46.48.403798 +0530,
-50,x,112,0,28,x,1,0.2841032079886645,None,28,0,112,0,,,,,260.22633483301615,,260.21734770800686,260.22633483301615,261.216383083025,261.216383083025,261.216383083025,261.216383083025,261.216383083025,262.2163259999943,262.2163259999943,262.51163308299147,x,1,0.2841032079886645,None,,,,,3,001,2025-10-01_11h45.19.951, Motor Sequence Learning,,2025.1.1,None,2025-10-01 11h46.48.403798 +0530,
150,v,113,1,28,v,1,0.2787147909984924,None,28,1,113,1,,,,,262.5214359170059,,262.51217187498696,262.5214359170059,263.5097702500061,263.5097702500061,263.5097702500061,263.5097702500061,263.51515854202444,264.50964387500426,264.50964387500426,264.79497979197185,v,1,0.2787147909984924,None,,,,,3,001,2025-10-01_11h45.19.951, Motor Sequence Learning,,2025.1.1,None,2025-10-01 11h46.48.403798 +0530,
50,c,114,2,28,c,1,0.41922645800514147,None,28,2,114,2,,,,,264.80514712497825,,264.79574475000845,264.80514712497825,265.79305741697317,265.79305741697317,265.79305741697317,265.79305741697317,265.79824762500357,266.7930575420032,266.7930575420032,267.2169470000081,c,1,0.41922645800514147,None,,,,,3,001,2025-10-01_11h45.19.951, Motor Sequence Learning,,2025.1.1,None,2025-10-01 11h46.48.403798 +0530,
-150,z,115,3,28,z,1,0.27863204100867733,None,28,3,115,3,,,,,267.2434028330026,,267.2174725420191,267.2434028330026,268.215597375005,268.215597375005,268.215597375005,268.215597375005,268.23049112502486,269.215228541987,269.215228541987,269.4991471670219,z,1,0.27863204100867733,None,,,,,3,001,2025-10-01_11h45.19.951, Motor Sequence Learning,,2025.1.1,None,2025-10-01 11h46.48.403798 +0530,
-50,x,116,0,29,x,1,0.2789678330300376,None,29,0,116,0,,,,,269.50901870802045,,269.4996662919875,269.50901870802045,270.49886829202296,270.49886829202296,270.49886829202296,270.49886829202296,270.49886829202296,271.4992202499998,271.4992202499998,271.7826307080104,x,1,0.2789678330300376,None,,,,,3,001,2025-10-01_11h45.19.951, Motor Sequence Learning,,2025.1.1,None,2025-10-01 11h46.48.403798 +0530,
150,v,117,1,29,v,1,0.27266937401145697,None,29,1,117,1,,,,,271.7921508749714,,271.7831581669743,271.7921508749714,272.7830580829759,272.7830580829759,272.7830580829759,272.7830580829759,272.7830580829759,273.7824487920152,273.7824487920152,274.0614341669716,v,1,0.27266937401145697,None,,,,,3,001,2025-10-01_11h45.19.951, Motor Sequence Learning,,2025.1.1,None,2025-10-01 11h46.48.403798 +0530,
50,c,118,2,29,c,1,0.3396104570128955,None,29,2,118,2,,,,,274.0707779999939,,274.06197504198644,274.0707779999939,275.05971558298916,275.05971558298916,275.05971558298916,275.05971558298916,275.0650323749869,276.0597025419702,276.0597025419702,276.4116079999949,c,1,0.3396104570128955,None,,,,,3,001,2025-10-01_11h45.19.951, Motor Sequence Learning,,2025.1.1,None,2025-10-01 11h46.48.403798 +0530,
-150,z,119,3,29,z,1,0.23938737396383658,None,29,3,119,3,,,,,276.4207637499785,,276.41212837497005,276.4207637499785,277.40969908301486,277.40969908301486,277.40969908301486,277.40969908301486,277.4147007499705,278.4096688749851,278.4096688749851,278.66139733302407,z,1,0.23938737396383658,None,,,,,3,001,2025-10-01_11h45.19.951, Motor Sequence Learning,,2025.1.1,None,2025-10-01 11h46.48.403798 +0530,
-50,x,120,0,30,x,1,0.6103342490387149,None,30,0,120,0,,,,,278.6705866670236,,278.6619279999868,278.6705866670236,279.6598133330117,279.6598133330117,279.6598133330117,279.6598133330117,279.6652168330038,280.6596816669917,280.6596816669917,281.27857941697584,x,1,0.6103342490387149,None,,,,,3,001,2025-10-01_11h45.19.951, Motor Sequence Learning,,2025.1.1,None,2025-10-01 11h46.48.403798 +0530,
150,v,121,1,30,v,1,0.279705123975873,None,30,1,121,1,,,,,281.28907587501453,,281.27945133298635,281.28907587501453,282.2764825419872,282.2764825419872,282.2764825419872,282.2764825419872,282.2824473750079,283.27630249998765,283.27630249998765,283.5619824170135,v,1,0.279705123975873,None,,,,,3,001,2025-10-01_11h45.19.951, Motor Sequence Learning,,2025.1.1,None,2025-10-01 11h46.48.403798 +0530,
50,c,122,2,30,c,1,0.3519494569627568,None,30,2,122,2,,,,,283.571446750022,,283.56266749999486,283.571446750022,284.5592665420263,284.5592665420263,284.5592665420263,284.5592665420263,284.56433741701767,285.5598842499894,285.5598842499894,285.915923958004,c,1,0.3519494569627568,None,,,,,3,001,2025-10-01_11h45.19.951, Motor Sequence Learning,,2025.1.1,None,2025-10-01 11h46.48.403798 +0530,
-150,z,123,3,30,z,1,0.39904708199901506,None,30,3,123,3,,,,,285.92606262501795,,285.91647204197943,285.92606262501795,286.91563362500165,286.91563362500165,286.91563362500165,286.91563362500165,286.91563362500165,287.9157960829907,287.9157960829907,288.31627841701265,z,1,0.39904708199901506,None,,,,,3,001,2025-10-01_11h45.19.951, Motor Sequence Learning,,2025.1.1,None,2025-10-01 11h46.48.403798 +0530,
-50,x,124,0,31,x,1,0.24152299901470542,None,31,0,124,0,,,,,288.32567212497815,,288.31679933302803,288.32567212497815,289.3156763329753,289.3156763329753,289.3156763329753,289.3156763329753,289.3156763329753,290.315274707973,290.315274707973,290.5618967919727,x,1,0.24152299901470542,None,,,,,3,001,2025-10-01_11h45.19.951, Motor Sequence Learning,,2025.1.1,None,2025-10-01 11h46.48.403798 +0530,
150,v,125,1,31,v,1,0.5070445410092361,None,31,1,125,1,,,,,290.57199220801704,,290.5627394579933,290.57199220801704,291.5596442500246,291.5596442500246,291.5596442500246,291.5596442500246,291.56425904197386,292.5596822919906,292.5596822919906,293.078156500007,v,1,0.5070445410092361,None,,,,,3,001,2025-10-01_11h45.19.951, Motor Sequence Learning,,2025.1.1,None,2025-10-01 11h46.48.403798 +0530,
50,c,126,2,31,c,1,0.2626418329891749,None,31,2,126,2,,,,,293.0878144580056,,293.078721042024,293.0878144580056,294.0764395419974,294.0764395419974,294.0764395419974,294.0764395419974,294.08145608298946,295.07604187499965,295.07604187499965,295.34528029197827,c,1,0.2626418329891749,None,,,,,3,001,2025-10-01_11h45.19.951, Motor Sequence Learning,,2025.1.1,None,2025-10-01 11h46.48.403798 +0530,
-150,z,127,3,31,z,1,0.30058170802658424,None,31,3,127,3,,,,,295.35513662500307,,295.34602241701214,295.35513662500307,296.34325345797697,296.34325345797697,296.34325345797697,296.34325345797697,296.3498744170065,297.342944916978,297.342944916978,297.65045462502167,z,1,0.30058170802658424,None,,,,,3,001,2025-10-01_11h45.19.951, Motor Sequence Learning,,2025.1.1,None,2025-10-01 11h46.48.403798 +0530,
-50,x,128,0,32,x,1,0.2711169579997659,None,32,0,128,0,,,,,297.67651941697113,,297.6509916249779,297.67651941697113,298.6490305829793,298.6490305829793,298.6490305829793,298.6490305829793,298.6640054580057,299.6485090419883,299.6485090419883,299.9280925000203,x,1,0.2711169579997659,None,,,,,3,001,2025-10-01_11h45.19.951, Motor Sequence Learning,,2025.1.1,None,2025-10-01 11h46.48.403798 +0530,
150,v,129,1,32,v,1,0.26222174998838454,None,32,1,129,1,,,,,299.9379110420123,,299.9286596250022,299.9379110420123,300.92629095801385,300.92629095801385,300.92629095801385,300.92629095801385,300.9308827500208,301.9263787919772,301.9263787919772,302.1948444999871,v,1,0.26222174998838454,None,,,,,3,001,2025-10-01_11h45.19.951, Motor Sequence Learning,,2025.1.1,None,2025-10-01 11h46.48.403798 +0530,
50,c,130,2,32,c,1,0.28150799905415624,None,32,2,130,2,,,,,302.20438316697255,,302.19539337500464,302.20438316697255,303.19300837500487,303.19300837500487,303.19300837500487,303.19300837500487,303.1988385830191,304.19296212500194,304.19296212500194,304.4781305419747,c,1,0.28150799905415624,None,,,,,3,001,2025-10-01_11h45.19.951, Motor Sequence Learning,,2025.1.1,None,2025-10-01 11h46.48.403798 +0530,
-150,z,131,3,32,z,1,0.26513424899894744,None,32,3,131,3,,,,,304.48768212500727,,304.4787052500178,304.48768212500727,305.4763898749952,305.4763898749952,305.4763898749952,305.4763898749952,305.4820905000088,306.4763136670226,306.4763136670226,306.7447682499769,z,1,0.26513424899894744,None,,,,,3,001,2025-10-01_11h45.19.951, Motor Sequence Learning,,2025.1.1,None,2025-10-01 11h46.48.403798 +0530,
-50,x,132,0,33,x,1,0.2695089569897391,None,33,0,132,0,,,,,306.75459412497,,306.7454233749886,306.75459412497,307.743059624976,307.743059624976,307.743059624976,307.743059624976,307.7481354170013,308.74291099997936,308.74291099997936,309.01556395797525,x,1,0.2695089569897391,None,,,,,3,001,2025-10-01_11h45.19.951, Motor Sequence Learning,,2025.1.1,None,2025-10-01 11h46.48.403798 +0530,
150,v,133,1,33,v,1,1.098470791010186,None,33,1,133,1,,,,,309.0255361670279,,309.0160683330032,309.0255361670279,310.015695833019,310.015695833019,310.015695833019,310.015695833019,310.015695833019,311.01582733297255,311.01582733297255,312.1286871249904,v,1,1.098470791010186,None,,,,,3,001,2025-10-01_11h45.19.951, Motor Sequence Learning,,2025.1.1,None,2025-10-01 11h46.48.403798 +0530,
50,c,134,2,33,c,1,0.33292779099429026,None,33,2,134,2,,,,,312.1388022080064,,312.1293623750098,312.1388022080064,313.1263918330078,313.1263918330078,313.1263918330078,313.1263918330078,313.1321053329739,314.12632587499684,314.12632587499684,314.4619121249998,c,1,0.33292779099429026,None,,,,,3,001,2025-10-01_11h45.19.951, Motor Sequence Learning,,2025.1.1,None,2025-10-01 11h46.48.403798 +0530,
-150,z,135,3,33,z,1,0.2415467079845257,None,33,3,135,3,,,,,314.4719159170054,,314.4625680419849,314.4719159170054,315.45954066701233,315.45954066701233,315.45954066701233,315.45954066701233,315.4638189999969,316.4596352499793,316.4596352499793,316.71071295801084,z,1,0.2415467079845257,None,,,,,3,001,2025-10-01_11h45.19.951, Motor Sequence Learning,,2025.1.1,None,2025-10-01 11h46.48.403798 +0530,
-50,x,136,0,34,x,1,0.2834217079798691,None,34,0,136,0,,,,,316.71726300002774,,316.7113150000223,316.71726300002774,317.7096368750208,317.7096368750208,317.7096368750208,317.7096368750208,317.7147617919836,318.7096810420044,318.7096810420044,319.00609270797577,x,1,0.2834217079798691,None,,,,,3,001,2025-10-01_11h45.19.951, Motor Sequence Learning,,2025.1.1,None,2025-10-01 11h46.48.403798 +0530,
150,v,137,1,34,v,1,0.15186424896819517,None,34,1,137,1,,,,,319.02670841699,,319.00650570797734,319.02670841699,319.9983789169928,319.9983789169928,319.9983789169928,319.9983789169928,320.0143792500021,320.9982567499974,320.9982567499974,321.1617103330209,v,1,0.15186424896819517,None,,,,,3,001,2025-10-01_11h45.19.951, Motor Sequence Learning,,2025.1.1,None,2025-10-01 11h46.48.403798 +0530,
50,c,138,2,34,c,1,0.29149066598620266,None,34,2,138,2,,,,,321.1722401669831,,321.1622769170208,321.1722401669831,322.15966645797016,322.15966645797016,322.15966645797016,322.15966645797016,322.1649321250152,323.15962408302585,323.15962408302585,323.46145850000903,c,1,0.29149066598620266,None,,,,,3,001,2025-10-01_11h45.19.951, Motor Sequence Learning,,2025.1.1,None,2025-10-01 11h46.48.403798 +0530,
-150,z,139,3,34,z,1,0.2844783749897033,None,34,3,139,3,,,,,323.4715832499787,,323.4620216250187,323.4715832499787,324.45957700000145,324.45957700000145,324.45957700000145,324.45957700000145,324.4646000000066,325.4594468330033,325.4594468330033,325.7492530000163,z,1,0.2844783749897033,None,,,,,3,001,2025-10-01_11h45.19.951, Motor Sequence Learning,,2025.1.1,None,2025-10-01 11h46.48.403798 +0530,
-50,x,140,0,35,x,1,0.3321007909835316,None,35,0,140,0,,,,,325.7591334169847,,325.7497954579885,325.7591334169847,326.74809679202735,326.74809679202735,326.74809679202735,326.74809679202735,326.74809679202735,327.74890145799145,327.74890145799145,328.08282683300786,x,1,0.3321007909835316,None,,,,,3,001,2025-10-01_11h45.19.951, Motor Sequence Learning,,2025.1.1,None,2025-10-01 11h46.48.403798 +0530,
150,v,141,1,35,v,1,0.30420383298769593,None,35,1,141,1,,,,,328.0923120829975,,328.08333083300386,328.0923120829975,329.08148145797895,329.08148145797895,329.08148145797895,329.08148145797895,329.08148145797895,330.08176024997374,330.08176024997374,330.3946548330132,v,1,0.30420383298769593,None,,,,,3,001,2025-10-01_11h45.19.951, Motor Sequence Learning,,2025.1.1,None,2025-10-01 11h46.48.403798 +0530,
50,c,142,2,35,c,1,0.2680079159908928,None,35,2,142,2,,,,,330.40466945798835,,330.39521295798477,330.40466945798835,331.3930664170184,331.3930664170184,331.3930664170184,331.3930664170184,331.3993097919738,332.39289145800285,332.39289145800285,332.66653383302037,c,1,0.2680079159908928,None,,,,,3,001,2025-10-01_11h45.19.951, Motor Sequence Learning,,2025.1.1,None,2025-10-01 11h46.48.403798 +0530,
-150,z,143,3,35,z,1,0.3112672499846667,None,35,3,143,3,,,,,332.67616229201667,,332.667070000025,332.67616229201667,333.6648245829856,333.6648245829856,333.6648245829856,333.6648245829856,333.6648245829856,334.66542274999665,334.66542274999665,334.9832336669788,z,1,0.3112672499846667,None,,,,,3,001,2025-10-01_11h45.19.951, Motor Sequence Learning,,2025.1.1,None,2025-10-01 11h46.48.403798 +0530,
-50,x,144,0,36,x,1,0.48138833296252415,None,36,0,144,0,,,,,334.9924742919975,,334.9837570830132,334.9924742919975,335.981398666976,335.981398666976,335.981398666976,335.981398666976,335.981398666976,336.98241716698976,336.98241716698976,337.4664907080005,x,1,0.48138833296252415,None,,,,,3,001,2025-10-01_11h45.19.951, Motor Sequence Learning,,2025.1.1,None,2025-10-01 11h46.48.403798 +0530,
150,v,145,1,36,v,1,0.30752933298936114,None,36,1,145,1,,,,,337.4932492499938,,337.4670665420126,337.4932492499938,338.46494720800547,338.46494720800547,338.46494720800547,338.46494720800547,338.48097745800624,339.46520616702037,339.46520616702037,339.7779822499724,v,1,0.30752933298936114,None,,,,,3,001,2025-10-01_11h45.19.951, Motor Sequence Learning,,2025.1.1,None,2025-10-01 11h46.48.403798 +0530,
50,c,146,2,36,c,1,0.244731541024521,None,36,2,146,2,,,,,339.7890565000125,,339.7786867499817,339.7890565000125,340.776231417025,340.776231417025,340.776231417025,340.776231417025,340.78056766698137,341.77612237498397,341.77612237498397,342.028228708019,c,1,0.244731541024521,None,,,,,3,001,2025-10-01_11h45.19.951, Motor Sequence Learning,,2025.1.1,None,2025-10-01 11h46.48.403798 +0530,
-150,z,147,3,36,z,1,0.24539599905256182,None,36,3,147,3,,,,,342.0380041250028,,342.0289532499737,342.0380041250028,343.02626399998553,343.02626399998553,343.02626399998553,343.02626399998553,343.03057341702515,344.0261966250255,344.0261966250255,344.27813545800745,z,1,0.24539599905256182,None,,,,,3,001,2025-10-01_11h45.19.951, Motor Sequence Learning,,2025.1.1,None,2025-10-01 11h46.48.403798 +0530,
-50,x,148,0,37,x,1,0.2772030410123989,None,37,0,148,0,,,,,344.288743083016,,344.27871387498453,344.288743083016,345.27618541702395,345.27618541702395,345.27618541702395,345.27618541702395,345.281613417028,346.2762878750218,346.2762878750218,346.5614025419927,x,1,0.2772030410123989,None,,,,,3,001,2025-10-01_11h45.19.951, Motor Sequence Learning,,2025.1.1,None,2025-10-01 11h46.48.403798 +0530,
150,v,149,1,37,v,1,0.22500387503532693,None,37,1,149,1,,,,,346.57179612497566,,346.5619992919965,346.57179612497566,347.5595109999995,347.5595109999995,347.5595109999995,347.5595109999995,347.5648983329884,348.55956008302746,348.55956008302746,348.79474720801227,v,1,0.22500387503532693,None,,,,,3,001,2025-10-01_11h45.19.951, Motor Sequence Learning,,2025.1.1,None,2025-10-01 11h46.48.403798 +0530,
50,c,150,2,37,c,1,0.3128124159993604,None,37,2,150,2,,,,,348.80436433298746,,348.7954294169904,348.80436433298746,349.7928892499767,349.7928892499767,349.7928892499767,349.7928892499767,349.7975678750081,350.7927721249871,350.7927721249871,351.111362207972,c,1,0.3128124159993604,None,,,,,3,001,2025-10-01_11h45.19.951, Motor Sequence Learning,,2025.1.1,None,2025-10-01 11h46.48.403798 +0530,
-150,z,151,3,37,z,1,0.2598042490426451,None,37,3,151,3,,,,,351.12040900002467,,351.1119054169976,351.12040900002467,352.10963991697645,352.10963991697645,352.10963991697645,352.10963991697645,352.11488791700685,353.1095372919808,353.1095372919808,353.3780536670238,z,1,0.2598042490426451,None,,,,,3,001,2025-10-01_11h45.19.951, Motor Sequence Learning,,2025.1.1,None,2025-10-01 11h46.48.403798 +0530,
-50,x,152,0,38,x,1,0.46617195795988664,None,38,0,152,0,,,,,353.3877161249984,,353.3788310000091,353.3877161249984,354.37604966701474,354.37604966701474,354.37604966701474,354.37604966701474,354.3806105420226,355.37620474997675,355.37620474997675,355.8447169580031,x,1,0.46617195795988664,None,,,,,3,001,2025-10-01_11h45.19.951, Motor Sequence Learning,,2025.1.1,None,2025-10-01 11h46.48.403798 +0530,
150,v,153,1,38,v,1,0.2734933329629712,None,38,1,153,1,,,,,355.85401441698195,,355.84542799997143,355.85401441698195,356.8428458329872,356.8428458329872,356.8428458329872,356.8428458329872,356.8478871670086,357.8428590000258,357.8428590000258,358.128486667003,v,1,0.2734933329629712,None,,,,,3,001,2025-10-01_11h45.19.951, Motor Sequence Learning,,2025.1.1,None,2025-10-01 11h46.48.403798 +0530,
50,c,154,2,38,c,1,0.2729479999979958,None,38,2,154,2,,,,,358.1377713329857,,358.12916316697374,358.1377713329857,359.12611820799066,359.12611820799066,359.12611820799066,359.12611820799066,359.1310937079834,360.12635341699934,360.12635341699934,360.4114534580149,c,1,0.2729479999979958,None,,,,,3,001,2025-10-01_11h45.19.951, Motor Sequence Learning,,2025.1.1,None,2025-10-01 11h46.48.403798 +0530,
-150,z,155,3,38,z,1,0.2827937909751199,None,38,3,155,3,,,,,360.42101849999744,,360.4120786249987,360.42101849999744,361.40980062499875,361.40980062499875,361.40980062499875,361.40980062499875,361.41619883297244,362.4094276250107,362.4094276250107,362.6950662920135,z,1,0.2827937909751199,None,,,,,3,001,2025-10-01_11h45.19.951, Motor Sequence Learning,,2025.1.1,None,2025-10-01 11h46.48.403798 +0530,
-50,x,156,0,39,x,1,0.39135312399594113,None,39,0,156,0,,,,,362.70433383301133,,362.6958784579765,362.70433383301133,363.692913167004,363.692913167004,363.692913167004,363.692913167004,363.69776395801455,364.6928137919749,364.6928137919749,365.09511791699333,x,1,0.39135312399594113,None,,,,,3,001,2025-10-01_11h45.19.951, Motor Sequence Learning,,2025.1.1,None,2025-10-01 11h46.48.403798 +0530,
150,v,157,1,39,v,1,0.27630308299558237,None,39,1,157,1,,,,,365.1041514169774,,365.0956960420008,365.1041514169774,366.0927258330048,366.0927258330048,366.0927258330048,366.0927258330048,366.0969628749881,367.0928353749914,367.0928353749914,367.37806499999715,v,1,0.27630308299558237,None,,,,,3,001,2025-10-01_11h45.19.951, Motor Sequence Learning,,2025.1.1,None,2025-10-01 11h46.48.403798 +0530,
50,c,158,2,39,c,1,0.718930457951501,None,39,2,158,2,,,,,367.38741858297726,,367.3788395419833,367.38741858297726,368.37619841698324,368.37619841698324,368.37619841698324,368.37619841698324,368.38035283301724,369.376124833012,369.376124833012,370.10015454201493,c,1,0.718930457951501,None,,,,,3,001,2025-10-01_11h45.19.951, Motor Sequence Learning,,2025.1.1,None,2025-10-01 11h46.48.403798 +0530,
-150,z,159,3,39,z,1,0.296111456991639,None,39,3,159,3,,,,,370.10860562499147,,370.10069266700884,370.10860562499147,371.1003256670083,371.1003256670083,371.1003256670083,371.1003256670083,371.1003256670083,372.0988393750158,372.0988393750158,372.40046404197346,z,1,0.296111456991639,None,,,,,3,001,2025-10-01_11h45.19.951, Motor Sequence Learning,,2025.1.1,None,2025-10-01 11h46.48.403798 +0530,
-50,x,160,0,40,x,1,0.27857466600835323,None,40,0,160,0,,,,,372.42642004200025,,372.4010106669739,372.42642004200025,373.3985966669861,373.3985966669861,373.3985966669861,373.3985966669861,373.41379412502283,374.3984563749982,374.3984563749982,374.68324266700074,x,1,0.27857466600835323,None,,,,,3,001,2025-10-01_11h45.19.951, Motor Sequence Learning,,2025.1.1,None,2025-10-01 11h46.48.403798 +0530,
150,v,161,1,40,v,1,0.2782252909964882,None,40,1,161,1,,,,,374.69220129202586,,374.6837743750075,374.69220129202586,375.68187241698615,375.68187241698615,375.68187241698615,375.68187241698615,375.68187241698615,376.6817416669801,376.6817416669801,376.96552858297946,v,1,0.2782252909964882,None,,,,,3,001,2025-10-01_11h45.19.951, Motor Sequence Learning,,2025.1.1,None,2025-10-01 11h46.48.403798 +0530,
50,c,162,2,40,c,1,0.26022191595984623,None,40,2,162,2,,,,,376.9752947500092,,376.96605620800983,376.9752947500092,377.96655966702383,377.96655966702383,377.96655966702383,377.96655966702383,377.96655966702383,378.9646275829873,378.9646275829873,379.22795545798726,c,1,0.26022191595984623,None,,,,,3,001,2025-10-01_11h45.19.951, Motor Sequence Learning,,2025.1.1,None,2025-10-01 11h46.48.403798 +0530,
-150,z,163,3,40,z,1,0.26374762394698337,None,40,3,163,3,,,,,379.2371960420278,,379.22849474998657,379.2371960420278,380.22619862499414,380.22619862499414,380.22619862499414,380.22619862499414,380.2313824170269,381.226000500028,381.226000500028,381.49463708297117,z,1,0.26374762394698337,None,,,,,3,001,2025-10-01_11h45.19.951, Motor Sequence Learning,,2025.1.1,None,2025-10-01 11h46.48.403798 +0530,
-50,x,164,0,41,x,1,0.28411104099359363,None,41,0,164,0,,,,,381.503943208023,,381.4951800419949,381.503943208023,382.4926619170001,382.4926619170001,382.4926619170001,382.4926619170001,382.4974072499899,383.4927357499837,383.4927357499837,383.78280779201305,x,1,0.28411104099359363,None,,,,,3,001,2025-10-01_11h45.19.951, Motor Sequence Learning,,2025.1.1,None,2025-10-01 11h46.48.403798 +0530,
150,v,165,1,41,v,1,0.265017333033029,None,41,1,165,1,,,,,383.79209391697077,,383.783339000016,383.79209391697077,384.7811122920248,384.7811122920248,384.7811122920248,384.7811122920248,384.7811122920248,385.7817102500121,385.7817102500121,386.0484062919859,v,1,0.265017333033029,None,,,,,3,001,2025-10-01_11h45.19.951, Motor Sequence Learning,,2025.1.1,None,2025-10-01 11h46.48.403798 +0530,
50,c,166,2,41,c,1,0.29606720799347386,None,41,2,166,2,,,,,386.0585287499707,,386.0489357080078,386.0585287499707,387.0484764580033,387.0484764580033,387.0484764580033,387.0484764580033,387.0484764580033,388.0427121249959,388.0427121249959,388.34473654197063,c,1,0.29606720799347386,None,,,,,3,001,2025-10-01_11h45.19.951, Motor Sequence Learning,,2025.1.1,None,2025-10-01 11h46.48.403798 +0530,
-150,z,167,3,41,z,1,0.32680474902736023,None,41,3,167,3,,,,,388.3537103330018,,388.3452954170061,388.3537103330018,389.3427532920032,389.3427532920032,389.3427532920032,389.3427532920032,389.34737749997294,390.34281604201533,390.34281604201533,390.678240542009,z,1,0.32680474902736023,None,,,,,3,001,2025-10-01_11h45.19.951, Motor Sequence Learning,,2025.1.1,None,2025-10-01 11h46.48.403798 +0530,
-50,x,168,0,42,x,1,0.28336174896685407,None,42,0,168,0,,,,,390.6877803329844,,390.67894179199357,390.6877803329844,391.6760825419915,391.6760825419915,391.6760825419915,391.6760825419915,391.6802381249727,392.6762297920068,392.6762297920068,392.96560779202264,x,1,0.28336174896685407,None,,,,,3,001,2025-10-01_11h45.19.951, Motor Sequence Learning,,2025.1.1,None,2025-10-01 11h46.48.403798 +0530,
150,v,169,1,42,v,1,0.30702874896815047,None,42,1,169,1,,,,,392.97525770799257,,392.966125292005,392.97525770799257,393.96419429202797,393.96419429202797,393.96419429202797,393.96419429202797,393.96419429202797,394.9644935000106,394.9644935000106,395.2779004169861,v,1,0.30702874896815047,None,,,,,3,001,2025-10-01_11h45.19.951, Motor Sequence Learning,,2025.1.1,None,2025-10-01 11h46.48.403798 +0530,
50,c,170,2,42,c,1,0.27350420801667497,None,42,2,170,2,,,,,395.28714916697936,,395.2786600419786,395.28714916697936,396.27612670802046,396.27612670802046,396.27612670802046,396.27612670802046,396.28077683300944,397.2760150000104,397.2760150000104,397.56175845797407,c,1,0.27350420801667497,None,,,,,3,001,2025-10-01_11h45.19.951, Motor Sequence Learning,,2025.1.1,None,2025-10-01 11h46.48.403798 +0530,
-150,z,171,3,42,z,1,0.27839549898635596,None,42,3,171,3,,,,,397.5709376250161,,397.5624061669805,397.5709376250161,398.559417499986,398.559417499986,398.559417499986,398.559417499986,398.5636814580066,399.5593168329797,399.5593168329797,399.8446277920157,z,1,0.27839549898635596,None,,,,,3,001,2025-10-01_11h45.19.951, Motor Sequence Learning,,2025.1.1,None,2025-10-01 11h46.48.403798 +0530,
-50,x,172,0,43,x,1,0.29373312497045845,None,43,0,172,0,,,,,399.8536693750066,,399.8451987080043,399.8536693750066,400.84274450002704,400.84274450002704,400.84274450002704,400.84274450002704,400.8475000829785,401.84273579198634,401.84273579198634,402.1451672919793,x,1,0.29373312497045845,None,,,,,3,001,2025-10-01_11h45.19.951, Motor Sequence Learning,,2025.1.1,None,2025-10-01 11h46.48.403798 +0530,
150,v,173,1,43,v,1,0.27777670801151544,None,43,1,173,1,,,,,402.1547544170171,,402.1460684170015,402.1547544170171,403.14280458301073,403.14280458301073,403.14280458301073,403.14280458301073,403.14746754197404,404.14269412501017,404.14269412501017,404.4280654580216,v,1,0.27777670801151544,None,,,,,3,001,2025-10-01_11h45.19.951, Motor Sequence Learning,,2025.1.1,None,2025-10-01 11h46.48.403798 +0530,
50,c,174,2,43,c,1,0.4171996239456348,None,43,2,174,2,,,,,404.43682470801286,,404.4286199170165,404.43682470801286,405.4260814579902,405.4260814579902,405.4260814579902,405.4260814579902,405.4304447500035,406.4259953330038,406.4259953330038,406.8490050000255,c,1,0.4171996239456348,None,,,,,3,001,2025-10-01_11h45.19.951, Motor Sequence Learning,,2025.1.1,None,2025-10-01 11h46.48.403798 +0530,
-150,z,175,3,43,z,1,0.31136987399077043,None,43,3,175,3,,,,,406.85887458297657,,406.8495325000258,406.85887458297657,407.84794833301567,407.84794833301567,407.84794833301567,407.84794833301567,407.84794833301567,408.84787570801564,408.84787570801564,409.1615845829947,z,1,0.31136987399077043,None,,,,,3,001,2025-10-01_11h45.19.951, Motor Sequence Learning,,2025.1.1,None,2025-10-01 11h46.48.403798 +0530,
-50,x,176,0,44,x,1,0.2948511660215445,None,44,0,176,0,,,,,409.1716627079877,,409.16213025001343,409.1716627079877,410.1592425000272,410.1592425000272,410.1592425000272,410.1592425000272,410.1643143330002,411.15941033302806,411.15941033302806,411.4614253329928,x,1,0.2948511660215445,None,,,,,3,001,2025-10-01_11h45.19.951, Motor Sequence Learning,,2025.1.1,None,2025-10-01 11h46.48.403798 +0530,
150,v,177,1,44,v,1,0.4519183320226148,None,44,1,177,1,,,,,411.4722856670269,,411.4622084579896,411.4722856670269,412.45941908302484,412.45941908302484,412.45941908302484,412.45941908302484,412.464650082984,413.45925291697495,413.45925291697495,413.9168288750225,v,1,0.4519183320226148,None,,,,,3,001,2025-10-01_11h45.19.951, Motor Sequence Learning,,2025.1.1,None,2025-10-01 11h46.48.403798 +0530,
50,c,178,2,44,c,1,0.3363743749796413,None,44,2,178,2,,,,,413.94285145797767,,413.917355499987,413.94285145797767,414.9146892079734,414.9146892079734,414.9146892079734,414.9146892079734,414.92990812502103,415.9157457079855,415.9157457079855,416.2616373330238,c,1,0.3363743749796413,None,,,,,3,001,2025-10-01_11h45.19.951, Motor Sequence Learning,,2025.1.1,None,2025-10-01 11h46.48.403798 +0530,
-150,z,179,3,44,z,1,0.29970479098847136,None,44,3,179,3,,,,,416.2720601669862,,416.26256820798153,416.2720601669862,417.25927170802606,417.25927170802606,417.25927170802606,417.25927170802606,417.26445458299713,418.25933741702465,418.25933741702465,418.56183483300265,z,1,0.29970479098847136,None,,,,,3,001,2025-10-01_11h45.19.951, Motor Sequence Learning,,2025.1.1,None,2025-10-01 11h46.48.403798 +0530,
-50,x,180,0,45,x,1,0.26184454100439325,None,45,0,180,0,,,,,418.57173883297946,,418.5624380829977,418.57173883297946,419.5594075000263,419.5594075000263,419.5594075000263,419.5594075000263,419.5654887079727,420.5592578329961,420.5592578329961,420.82799408299616,x,1,0.26184454100439325,None,,,,,3,001,2025-10-01_11h45.19.951, Motor Sequence Learning,,2025.1.1,None,2025-10-01 11h46.48.403798 +0530,
150,v,181,1,45,v,1,0.366017373977229,None,45,1,181,1,,,,,420.8379699169891,,420.82861295802286,420.8379699169891,421.8260676669888,421.8260676669888,421.8260676669888,421.8260676669888,421.8306994580198,422.8259472500067,422.8259472500067,423.1944505000138,v,1,0.366017373977229,None,,,,,3,001,2025-10-01_11h45.19.951, Motor Sequence Learning,,2025.1.1,None,2025-10-01 11h46.48.403798 +0530,
50,c,182,2,45,c,1,0.2842225410277024,None,45,2,182,2,,,,,423.20431112498045,,423.1949877080042,423.20431112498045,424.19266012497246,424.19266012497246,424.19266012497246,424.19266012497246,424.198084292002,425.19269487500424,425.19269487500424,425.48220237501664,c,1,0.2842225410277024,None,,,,,3,001,2025-10-01_11h45.19.951, Motor Sequence Learning,,2025.1.1,None,2025-10-01 11h46.48.403798 +0530,
-150,z,183,3,45,z,1,0.3106070830253884,None,45,3,183,3,,,,,425.49196416698396,,425.4827614169917,425.49196416698396,426.4807028750074,426.4807028750074,426.4807028750074,426.4807028750074,426.4807028750074,427.48123087501153,427.48123087501153,427.7945281249704,z,1,0.3106070830253884,None,,,,,3,001,2025-10-01_11h45.19.951, Motor Sequence Learning,,2025.1.1,None,2025-10-01 11h46.48.403798 +0530,
-50,x,184,0,46,x,1,0.23122708301525563,None,46,0,184,0,,,,,427.8043497080216,,427.79510558297625,427.8043497080216,428.79261750000296,428.79261750000296,428.79261750000296,428.79261750000296,428.7968286250252,429.79257729201345,429.79257729201345,430.0284672920243,x,1,0.23122708301525563,None,,,,,3,001,2025-10-01_11h45.19.951, Motor Sequence Learning,,2025.1.1,None,2025-10-01 11h46.48.403798 +0530,
150,v,185,1,46,v,1,0.28273812402039766,None,46,1,185,1,,,,,430.0384501250228,,430.0292618329986,430.0384501250228,431.0259093330242,431.0259093330242,431.0259093330242,431.0259093330242,431.0309124169871,432.026016000018,432.026016000018,432.3124499170226,v,1,0.28273812402039766,None,,,,,3,001,2025-10-01_11h45.19.951, Motor Sequence Learning,,2025.1.1,None,2025-10-01 11h46.48.403798 +0530,
50,c,186,2,46,c,1,0.2854017910431139,None,46,2,186,2,,,,,432.3225082500139,,432.31328320800094,432.3225082500139,433.30915908300085,433.30915908300085,433.30915908300085,433.30915908300085,433.3136995829991,434.3093019169755,434.3093019169755,434.5985365419765,c,1,0.2854017910431139,None,,,,,3,001,2025-10-01_11h45.19.951, Motor Sequence Learning,,2025.1.1,None,2025-10-01 11h46.48.403798 +0530,
-150,z,187,3,46,z,1,0.2904867079923861,None,46,3,187,3,,,,,434.60862491698936,,434.5990816249978,434.60862491698936,435.5979474579799,435.5979474579799,435.5979474579799,435.5979474579799,435.5979474579799,436.5981935419841,436.5981935419841,436.89494324999396,z,1,0.2904867079923861,None,,,,,3,001,2025-10-01_11h45.19.951, Motor Sequence Learning,,2025.1.1,None,2025-10-01 11h46.48.403798 +0530,
-50,x,188,0,47,x,1,0.3208461659960449,None,47,0,188,0,,,,,436.9050074170227,,436.8957312499988,436.9050074170227,437.8926163329743,437.8926163329743,437.8926163329743,437.8926163329743,437.8978112079785,438.8927028750186,438.8927028750186,439.2159086249885,x,1,0.3208461659960449,None,,,,,3,001,2025-10-01_11h45.19.951, Motor Sequence Learning,,2025.1.1,None,2025-10-01 11h46.48.403798 +0530,
150,v,189,1,47,v,1,0.47467662498820573,None,47,1,189,1,,,,,439.2254400830134,,439.2164653749787,439.2254400830134,440.214536332991,440.214536332991,440.214536332991,440.214536332991,440.214536332991,441.2149450830184,441.2149450830184,441.6949697919772,v,1,0.47467662498820573,None,,,,,3,001,2025-10-01_11h45.19.951, Motor Sequence Learning,,2025.1.1,None,2025-10-01 11h46.48.403798 +0530,
50,c,190,2,47,c,1,0.3196377489948645,None,47,2,190,2,,,,,441.7050520830089,,441.69578274997184,441.7050520830089,442.69261120801093,442.69261120801093,442.69261120801093,442.69261120801093,442.6976494580158,443.69276454200735,443.69276454200735,444.0165836670203,c,1,0.3196377489948645,None,,,,,3,001,2025-10-01_11h45.19.951, Motor Sequence Learning,,2025.1.1,None,2025-10-01 11h46.48.403798 +0530,
-150,z,191,3,47,x,0,0.46882345800986513,None,47,3,191,3,,,,,444.0259439999936,,444.01719491701806,444.0259439999936,445.0148639580002,445.0148639580002,445.0148639580002,445.0148639580002,445.0148639580002,446.01455691701267,446.01455691701267,446.4945130000124,x,0,0.46882345800986513,None,,,,,3,001,2025-10-01_11h45.19.951, Motor Sequence Learning,,2025.1.1,None,2025-10-01 11h46.48.403798 +0530,
-50,x,192,0,48,x,1,0.31073862401535735,None,48,0,192,0,,,,,446.50488554197364,,446.49532329197973,446.50488554197364,447.49252937501296,447.49252937501296,447.49252937501296,447.49252937501296,447.49729487497825,448.4926182500203,448.4926182500203,448.8112854170031,x,1,0.31073862401535735,None,,,,,3,001,2025-10-01_11h45.19.951, Motor Sequence Learning,,2025.1.1,None,2025-10-01 11h46.48.403798 +0530,
150,v,193,1,48,v,1,0.4109859570162371,None,48,1,193,1,,,,,448.8287042080192,,448.81183329201303,448.8287042080192,449.8092643750133,449.8092643750133,449.8092643750133,449.8092643750133,449.82588370802114,450.8093625420006,450.8093625420006,451.22774720797315,v,1,0.4109859570162371,None,,,,,3,001,2025-10-01_11h45.19.951, Motor Sequence Learning,,2025.1.1,None,2025-10-01 11h46.48.403798 +0530,
50,c,194,2,48,c,1,0.2437873330200091,None,48,2,194,2,,,,,451.2364492500201,,451.2283497080207,451.2364492500201,452.22590379201574,452.22590379201574,452.22590379201574,452.22590379201574,452.2306747920229,453.2260053330101,453.2260053330101,453.47776699997485,c,1,0.2437873330200091,None,,,,,3,001,2025-10-01_11h45.19.951, Motor Sequence Learning,,2025.1.1,None,2025-10-01 11h46.48.403798 +0530,
-150,z,195,3,48,z,1,0.30535416601924226,None,48,3,195,3,,,,,453.48625020799227,,453.47833895799704,453.48625020799227,454.4759745830088,454.4759745830088,454.4759745830088,454.4759745830088,454.48140112502733,455.47578699997393,455.47578699997393,455.78272999997716,z,1,0.30535416601924226,None,,,,,3,001,2025-10-01_11h45.19.951, Motor Sequence Learning,,2025.1.1,None,2025-10-01 11h46.48.403798 +0530,
-50,x,196,0,49,x,1,0.8968808749923483,None,49,0,196,0,,,,,455.791716000007,,455.7832887499826,455.791716000007,456.78197445801925,456.78197445801925,456.78197445801925,456.78197445801925,456.78197445801925,457.7823189999908,457.7823189999908,458.68260908301454,x,1,0.8968808749923483,None,,,,,3,001,2025-10-01_11h45.19.951, Motor Sequence Learning,,2025.1.1,None,2025-10-01 11h46.48.403798 +0530,
150,v,197,1,49,v,1,0.4025065829628147,None,49,1,197,1,,,,,458.69184874999337,,458.68314770801226,458.69184874999337,459.6814927919768,459.6814927919768,459.6814927919768,459.6814927919768,459.6814927919768,460.6816248749965,460.6816248749965,461.09481154201785,v,1,0.4025065829628147,None,,,,,3,001,2025-10-01_11h45.19.951, Motor Sequence Learning,,2025.1.1,None,2025-10-01 11h46.48.403798 +0530,
50,c,198,2,49,c,1,0.48349854099797085,None,49,2,198,2,,,,,461.1039232920157,,461.0954952079919,461.1039232920157,462.09259312500944,462.09259312500944,462.09259312500944,462.09259312500944,462.0967149580247,463.09250679198885,463.09250679198885,463.58722158300225,c,1,0.48349854099797085,None,,,,,3,001,2025-10-01_11h45.19.951, Motor Sequence Learning,,2025.1.1,None,2025-10-01 11h46.48.403798 +0530,
-150,z,199,3,49,z,1,0.3121456659864634,None,49,3,199,3,,,,,463.5916671670275,,463.5876602079952,463.5916671670275,464.5808414579951,464.5808414579951,464.5808414579951,464.5808414579951,464.5808414579951,465.5818012499949,465.5818012499949,465.8993679169798,z,1,0.3121456659864634,None,,,,,3,001,2025-10-01_11h45.19.951, Motor Sequence Learning,,2025.1.1,None,2025-10-01 11h46.48.403798 +0530,
150,v,0,0,0,v,1,0.4946111660101451,None,,,,,0,0,0,1,465.91826900001615,,465.91181183297886,465.91826900001615,466.89869929198176,466.89869929198176,466.89869929198176,466.89869929198176,466.91367375000846,467.8983083749772,467.8983083749772,468.3991221250035,,,,,v,1,0.4946111660101451,None,3,001,2025-10-01_11h45.19.951, Motor Sequence Learning,,2025.1.1,None,2025-10-01 11h46.48.403798 +0530,
-50,x,1,1,0,x,1,0.33054116601124406,None,,,,,0,1,1,0,468.40843545802636,,468.3996466670069,468.40843545802636,469.39768570801243,469.39768570801243,469.39768570801243,469.39768570801243,469.39768570801243,470.3984162500128,470.3984162500128,470.7319064170006,,,,,x,1,0.33054116601124406,None,3,001,2025-10-01_11h45.19.951, Motor Sequence Learning,,2025.1.1,None,2025-10-01 11h46.48.403798 +0530,
50,c,2,2,0,c,1,0.4441546239540912,None,,,,,0,2,2,2,470.74169308302226,,470.7324521249975,470.74169308302226,471.7312644579797,471.7312644579797,471.7312644579797,471.7312644579797,471.7312644579797,472.7318148330087,472.7318148330087,473.18688916700194,,,,,c,1,0.4441546239540912,None,3,001,2025-10-01_11h45.19.951, Motor Sequence Learning,,2025.1.1,None,2025-10-01 11h46.48.403798 +0530,
-50,x,3,3,1,x,1,0.5300861240248196,None,,,,,1,3,3,0,473.19154979201267,,473.18733233300736,473.19154979201267,474.1810418330133,474.1810418330133,474.1810418330133,474.1810418330133,474.1810418330133,475.1816892080242,475.1816892080242,475.71586875000503,,,,,x,1,0.5300861240248196,None,3,001,2025-10-01_11h45.19.951, Motor Sequence Learning,,2025.1.1,None,2025-10-01 11h46.48.403798 +0530,
-150,z,4,4,0,z,1,0.6235287070157938,None,,,,,0,4,4,3,475.7251706250245,,475.71641683299094,475.7251706250245,476.71514283301076,476.71514283301076,476.71514283301076,476.71514283301076,476.71514283301076,477.7143550000037,477.7143550000037,478.34449879202293,,,,,z,1,0.6235287070157938,None,3,001,2025-10-01_11h45.19.951, Motor Sequence Learning,,2025.1.1,None,2025-10-01 11h46.48.403798 +0530,
150,v,5,5,1,v,1,0.43430479103699327,None,,,,,1,5,5,1,478.35311020800145,,478.3451004580129,478.35311020800145,479.34255200001644,479.34255200001644,479.34255200001644,479.34255200001644,479.3477909580106,480.34243979200255,480.34243979200255,480.78268979198765,,,,,v,1,0.43430479103699327,None,3,001,2025-10-01_11h45.19.951, Motor Sequence Learning,,2025.1.1,None,2025-10-01 11h46.48.403798 +0530,
-150,z,6,6,1,z,1,0.4868999579921365,None,,,,,1,6,6,3,480.79178816697095,,480.78322404198116,480.79178816697095,481.7809709170251,481.7809709170251,481.7809709170251,481.7809709170251,481.7809709170251,482.78183054202236,482.78183054202236,483.27777141699335,,,,,z,1,0.4868999579921365,None,3,001,2025-10-01_11h45.19.951, Motor Sequence Learning,,2025.1.1,None,2025-10-01 11h46.48.403798 +0530,
50,c,7,7,1,c,1,0.5437884569982998,None,,,,,1,7,7,2,483.2867190829711,,483.27845491701737,483.2867190829711,484.27595525002107,484.27595525002107,484.27595525002107,484.27595525002107,484.2807440829929,485.27587762498297,485.27587762498297,485.82777133298805,,,,,c,1,0.5437884569982998,None,3,001,2025-10-01_11h45.19.951, Motor Sequence Learning,,2025.1.1,None,2025-10-01 11h46.48.403798 +0530,
50,c,8,8,2,c,1,0.48667045700130984,None,,,,,2,8,8,2,485.83670516702114,,485.82845937501406,485.83670516702114,486.8260061669862,486.8260061669862,486.8260061669862,486.8260061669862,486.8313760830206,487.82585979200667,487.82585979200667,488.31539254199015,,,,,c,1,0.48667045700130984,None,3,001,2025-10-01_11h45.19.951, Motor Sequence Learning,,2025.1.1,None,2025-10-01 11h46.48.403798 +0530,
-150,z,9,9,2,z,1,0.47188737499527633,None,,,,,2,9,9,3,488.32505562499864,,488.3159428330255,488.32505562499864,489.31406458298443,489.31406458298443,489.31406458298443,489.31406458298443,489.31406458298443,490.314736832981,490.314736832981,490.7944217919721,,,,,z,1,0.47188737499527633,None,3,001,2025-10-01_11h45.19.951, Motor Sequence Learning,,2025.1.1,None,2025-10-01 11h46.48.403798 +0530,
-150,z,10,10,3,z,1,0.49002133298199624,None,,,,,3,10,10,3,490.8029305830132,,490.7949931669864,490.8029305830132,491.7925779169891,491.7925779169891,491.7925779169891,491.7925779169891,491.79725433298154,492.79250087501714,492.79250087501714,493.29444775002776,,,,,z,1,0.49002133298199624,None,3,001,2025-10-01_11h45.19.951, Motor Sequence Learning,,2025.1.1,None,2025-10-01 11h46.48.403798 +0530,
150,v,11,11,2,v,1,0.31870766601059586,None,,,,,2,11,11,1,493.3031810420216,,493.2950179579784,493.3031810420216,494.292435957992,494.292435957992,494.292435957992,494.292435957992,494.29661366698565,495.2925677919993,495.2925677919993,495.6149064169731,,,,,v,1,0.31870766601059586,None,3,001,2025-10-01_11h45.19.951, Motor Sequence Learning,,2025.1.1,None,2025-10-01 11h46.48.403798 +0530,
50,c,12,12,3,c,1,0.3407044159830548,None,,,,,3,12,12,2,495.6251860000193,,495.6155062500038,495.6251860000193,496.61467754200567,496.61467754200567,496.61467754200567,496.61467754200567,496.61467754200567,497.61571116698906,497.61571116698906,497.96147091698367,,,,,c,1,0.3407044159830548,None,3,001,2025-10-01_11h45.19.951, Motor Sequence Learning,,2025.1.1,None,2025-10-01 11h46.48.403798 +0530,
150,v,13,13,3,v,1,0.44322287500835955,None,,,,,3,13,13,1,497.97019949997775,,497.962125207996,497.97019949997775,498.95922274998156,498.95922274998156,498.95922274998156,498.95922274998156,498.96406870801,499.9591018750216,499.9591018750216,500.4111153749982,,,,,v,1,0.44322287500835955,None,3,001,2025-10-01_11h45.19.951, Motor Sequence Learning,,2025.1.1,None,2025-10-01 11h46.48.403798 +0530,
-150,z,14,14,4,z,1,0.3189317079959437,None,,,,,4,14,14,3,500.4198360000155,,500.41165770799853,500.4198360000155,501.40908333298285,501.40908333298285,501.40908333298285,501.40908333298285,501.4137948330026,502.40920133300824,502.40920133300824,502.7325389580219,,,,,z,1,0.3189317079959437,None,3,001,2025-10-01_11h45.19.951, Motor Sequence Learning,,2025.1.1,None,2025-10-01 11h46.48.403798 +0530,
-50,x,15,15,2,v,0,0.14094224898144603,None,,,,,2,15,15,0,502.7417112499825,,502.733078041987,502.7417112499825,503.73126745800255,503.73126745800255,503.73126745800255,503.73126745800255,503.73126745800255,504.731304624991,504.731304624991,504.8776148330071,,,,,v,0,0.14094224898144603,None,3,001,2025-10-01_11h45.19.951, Motor Sequence Learning,,2025.1.1,None,2025-10-01 11h46.48.403798 +0530,
-50,x,16,16,3,x,1,0.5593198330025189,None,,,,,3,16,16,0,504.88629300001776,,504.8781875830027,504.88629300001776,505.87569929199526,505.87569929199526,505.87569929199526,505.87569929199526,505.8803265420138,506.8758831670275,506.8758831670275,507.4446914580185,,,,,x,1,0.5593198330025189,None,3,001,2025-10-01_11h45.19.951, Motor Sequence Learning,,2025.1.1,None,2025-10-01 11h46.48.403798 +0530,
150,v,17,17,4,v,1,0.3515229159966111,None,,,,,4,17,17,1,507.4540405829903,,507.4455217500217,507.4540405829903,508.4425958750071,508.4425958750071,508.4425958750071,508.4425958750071,508.44797816697974,509.4424633749877,509.4424633749877,509.79901449999306,,,,,v,1,0.3515229159966111,None,3,001,2025-10-01_11h45.19.951, Motor Sequence Learning,,2025.1.1,None,2025-10-01 11h46.48.403798 +0530,
-150,z,18,18,5,z,1,0.4468789999955334,None,,,,,5,18,18,3,509.808431249985,,509.79957312502665,509.808431249985,510.79785770800663,510.79785770800663,510.79785770800663,510.79785770800663,510.79785770800663,511.7980823329999,511.7980823329999,512.2493743749801,,,,,z,1,0.4468789999955334,None,3,001,2025-10-01_11h45.19.951, Motor Sequence Learning,,2025.1.1,None,2025-10-01 11h46.48.403798 +0530,
50,c,19,19,4,c,1,0.4495467909728177,None,,,,,4,19,19,2,512.2586729999748,,512.2499341670191,512.2586729999748,513.2472194579896,513.2472194579896,513.2472194579896,513.2472194579896,513.2472194579896,514.2484487079782,514.2484487079782,514.7112519170041,,,,,c,1,0.4495467909728177,None,3,001,2025-10-01_11h45.19.951, Motor Sequence Learning,,2025.1.1,None,2025-10-01 11h46.48.403798 +0530,
-50,x,20,20,4,x,1,0.525776540976949,None,,,,,4,20,20,0,514.7207797919982,,514.7118059999775,514.7207797919982,515.7094032919849,515.7094032919849,515.7094032919849,515.7094032919849,515.7152892919839,516.7091553750215,516.7091553750215,517.2447531250073,,,,,x,1,0.525776540976949,None,3,001,2025-10-01_11h45.19.951, Motor Sequence Learning,,2025.1.1,None,2025-10-01 11h46.48.403798 +0530,
150,v,21,21,5,v,1,0.39359487500041723,None,,,,,5,21,21,1,517.2544177920208,,517.2454385419842,517.2544177920208,518.242488000018,518.242488000018,518.242488000018,518.242488000018,518.2472002920113,519.2423815830261,519.2423815830261,519.6443754999782,,,,,v,1,0.39359487500041723,None,3,001,2025-10-01_11h45.19.951, Motor Sequence Learning,,2025.1.1,None,2025-10-01 11h46.48.403798 +0530,
50,c,22,22,5,c,1,0.37940320698544383,None,,,,,5,22,22,2,519.6539750419906,,519.6451356670004,519.6539750419906,520.6424858329701,520.6424858329701,520.6424858329701,520.6424858329701,520.6466112500057,521.6424042920116,521.6424042920116,522.0278221250046,,,,,c,1,0.37940320698544383,None,3,001,2025-10-01_11h45.19.951, Motor Sequence Learning,,2025.1.1,None,2025-10-01 11h46.48.403798 +0530,
150,v,23,23,6,v,1,0.5259491659817286,None,,,,,6,23,23,1,522.0374071249971,,522.028526582988,522.0374071249971,523.0258950419957,523.0258950419957,523.0258950419957,523.0258950419957,523.0310519579798,524.0258505829843,524.0258505829843,524.5611182500143,,,,,v,1,0.5259491659817286,None,3,001,2025-10-01_11h45.19.951, Motor Sequence Learning,,2025.1.1,None,2025-10-01 11h46.48.403798 +0530,
150,v,24,24,7,v,1,0.482532958034426,None,,,,,7,24,24,1,524.5702432499966,,524.5616584169911,524.5702432499966,525.5590150830103,525.5590150830103,525.5590150830103,525.5590150830103,525.5635066669784,526.559209332976,526.559209332976,527.0444022919983,,,,,v,1,0.482532958034426,None,3,001,2025-10-01_11h45.19.951, Motor Sequence Learning,,2025.1.1,None,2025-10-01 11h46.48.403798 +0530,
-150,z,25,25,6,z,1,0.3731390410102904,None,,,,,6,25,25,3,527.0555310419877,,527.0451696250238,527.0555310419877,528.0424024169915,528.0424024169915,528.0424024169915,528.0424024169915,528.0475631669979,529.0425014169887,529.0425014169887,529.4278276669793,,,,,z,1,0.3731390410102904,None,3,001,2025-10-01_11h45.19.951, Motor Sequence Learning,,2025.1.1,None,2025-10-01 11h46.48.403798 +0530,
50,c,26,26,6,c,1,0.48985420796088874,None,,,,,6,26,26,2,529.437744624971,,529.428391458001,529.437744624971,530.4257822500076,530.4257822500076,530.4257822500076,530.4257822500076,530.4299327919725,531.4256412499817,531.4256412499817,531.92775433301,,,,,c,1,0.48985420796088874,None,3,001,2025-10-01_11h45.19.951, Motor Sequence Learning,,2025.1.1,None,2025-10-01 11h46.48.403798 +0530,
-150,z,27,27,7,z,1,0.42371920798905194,None,,,,,7,27,27,3,531.9376315830159,,531.9283266250277,531.9376315830159,532.9257418750203,532.9257418750203,532.9257418750203,532.9257418750203,532.9301150829997,533.9258032080252,533.9258032080252,534.3611570000066,,,,,z,1,0.42371920798905194,None,3,001,2025-10-01_11h45.19.951, Motor Sequence Learning,,2025.1.1,None,2025-10-01 11h46.48.403798 +0530,
150,v,28,28,8,v,1,0.4004237500485033,None,,,,,8,28,28,1,534.3713482079911,,534.3618907919736,534.3713482079911,535.3590085000033,535.3590085000033,535.3590085000033,535.3590085000033,535.3637604999822,536.3590989580262,536.3590989580262,536.7722603330039,,,,,v,1,0.4004237500485033,None,3,001,2025-10-01_11h45.19.951, Motor Sequence Learning,,2025.1.1,None,2025-10-01 11h46.48.403798 +0530,
150,v,29,29,9,v,1,0.42834070802200586,None,,,,,9,29,29,1,536.7925055830274,,536.7726777499774,536.7925055830274,537.7649136250257,537.7649136250257,537.7649136250257,537.7649136250257,537.7799637920107,538.7650100829778,538.7650100829778,539.1988183750072,,,,,v,1,0.42834070802200586,None,3,001,2025-10-01_11h45.19.951, Motor Sequence Learning,,2025.1.1,None,2025-10-01 11h46.48.403798 +0530,
50,c,30,30,7,c,1,0.48684458300704136,None,,,,,7,30,30,2,539.2082794170128,,539.1993970830226,539.2082794170128,540.1977061249781,540.1977061249781,540.1977061249781,540.1977061249781,540.1977061249781,541.1985343329725,541.1985343329725,541.6944942920236,,,,,c,1,0.48684458300704136,None,3,001,2025-10-01_11h45.19.951, Motor Sequence Learning,,2025.1.1,None,2025-10-01 11h46.48.403798 +0530,
50,c,31,31,8,c,1,0.33107549900887534,None,,,,,8,31,31,2,541.7043407500023,,541.6950617919792,541.7043407500023,542.6924242500099,542.6924242500099,542.6924242500099,542.6924242500099,542.6972087079776,543.6923176670098,543.6923176670098,544.0276528749964,,,,,c,1,0.33107549900887534,None,3,001,2025-10-01_11h45.19.951, Motor Sequence Learning,,2025.1.1,None,2025-10-01 11h46.48.403798 +0530,
-150,z,32,32,8,z,1,0.5326265000039712,None,,,,,8,32,32,3,544.0372537919902,,544.028221458022,544.0372537919902,545.0257046250044,545.0257046250044,545.0257046250044,545.0257046250044,545.0302241669851,546.0257099579903,546.0257099579903,546.5610453750123,,,,,z,1,0.5326265000039712,None,3,001,2025-10-01_11h45.19.951, Motor Sequence Learning,,2025.1.1,None,2025-10-01 11h46.48.403798 +0530,
150,v,33,33,10,v,1,0.27827758295461535,None,,,,,10,33,33,1,546.5710341670201,,546.5616183750099,546.5710341670201,547.5591320419917,547.5591320419917,547.5591320419917,547.5591320419917,547.5635500830249,548.5590080419788,548.5590080419788,548.8443114170223,,,,,v,1,0.27827758295461535,None,3,001,2025-10-01_11h45.19.951, Motor Sequence Learning,,2025.1.1,None,2025-10-01 11h46.48.403798 +0530,
50,c,34,34,9,c,1,0.30895737395621836,None,,,,,9,34,34,2,548.8534407920088,,548.8448905830155,548.8534407920088,549.8424365830142,549.8424365830142,549.8424365830142,549.8424365830142,549.847135042015,550.8422652920126,550.8422652920126,551.1608127080253,,,,,c,1,0.30895737395621836,None,3,001,2025-10-01_11h45.19.951, Motor Sequence Learning,,2025.1.1,None,2025-10-01 11h46.48.403798 +0530,
-150,z,35,35,9,z,1,0.32550833298591897,None,,,,,9,35,35,3,551.1699484579731,,551.1613812079886,551.1699484579731,552.1591640000115,552.1591640000115,552.1591640000115,552.1591640000115,552.1640324579785,553.1590474999975,553.1590474999975,553.4948084580246,,,,,z,1,0.32550833298591897,None,3,001,2025-10-01_11h45.19.951, Motor Sequence Learning,,2025.1.1,None,2025-10-01 11h46.48.403798 +0530,
-150,z,36,36,10,z,1,0.5336393320467323,None,,,,,10,36,36,3,553.5044517919887,,553.4954972079722,553.5044517919887,554.4923562079784,554.4923562079784,554.4923562079784,554.4923562079784,554.4974827499827,555.4924373750109,555.4924373750109,556.0366242500022,,,,,z,1,0.5336393320467323,None,3,001,2025-10-01_11h45.19.951, Motor Sequence Learning,,2025.1.1,None,2025-10-01 11h46.48.403798 +0530,
-50,x,37,37,5,x,1,0.4576557499822229,None,,,,,5,37,37,0,556.0414673329797,,556.0370333329774,556.0414673329797,557.031444333028,557.031444333028,557.031444333028,557.031444333028,557.031444333028,558.0314752500271,558.0314752500271,558.494247500028,,,,,x,1,0.4576557499822229,None,3,001,2025-10-01_11h45.19.951, Motor Sequence Learning,,2025.1.1,None,2025-10-01 11h46.48.403798 +0530,
150,v,38,38,11,v,1,0.3195214159786701,None,,,,,11,38,38,1,558.5035152920173,,558.4948632500018,558.5035152920173,559.492408125021,559.492408125021,559.492408125021,559.492408125021,559.4971817079931,560.4924637079821,560.4924637079821,560.8166011249996,,,,,v,1,0.3195214159786701,None,3,001,2025-10-01_11h45.19.951, Motor Sequence Learning,,2025.1.1,None,2025-10-01 11h46.48.403798 +0530,
150,v,39,39,12,v,1,0.4112344579771161,None,,,,,12,39,39,1,560.8424647080246,,560.8171642079833,560.8424647080246,561.8148061669781,561.8148061669781,561.8148061669781,561.8148061669781,561.8300667500007,562.8146871249774,562.8146871249774,563.2378800829756,,,,,v,1,0.4112344579771161,None,3,001,2025-10-01_11h45.19.951, Motor Sequence Learning,,2025.1.1,None,2025-10-01 11h46.48.403798 +0530,
50,c,40,40,10,c,1,0.5185327079962008,None,,,,,10,40,40,2,563.2418575420161,,563.2383096669801,563.2418575420161,564.2309334580204,564.2309334580204,564.2309334580204,564.2309334580204,564.2309334580204,565.231343958003,565.231343958003,565.7609660829767,,,,,c,1,0.5185327079962008,None,3,001,2025-10-01_11h45.19.951, Motor Sequence Learning,,2025.1.1,None,2025-10-01 11h46.48.403798 +0530,
-50,x,41,41,6,x,1,0.3567825820064172,None,,,,,6,41,41,0,565.7704050000175,,565.7615272079711,565.7704050000175,566.7589569580159,566.7589569580159,566.7589569580159,566.7589569580159,566.7636657920084,567.7590226249886,567.7590226249886,568.1277577080182,,,,,x,1,0.3567825820064172,None,3,001,2025-10-01_11h45.19.951, Motor Sequence Learning,,2025.1.1,None,2025-10-01 11h46.48.403798 +0530,
-50,x,42,42,7,x,1,0.5221427080105059,None,,,,,7,42,42,0,568.1369525829796,,568.1282991669723,568.1369525829796,569.1257527500275,569.1257527500275,569.1257527500275,569.1257527500275,569.1305445419857,570.1256307080039,570.1256307080039,570.6609459579922,,,,,x,1,0.5221427080105059,None,3,001,2025-10-01_11h45.19.951, Motor Sequence Learning,,2025.1.1,None,2025-10-01 11h46.48.403798 +0530,
-50,x,43,43,8,x,1,0.48081145697506145,None,,,,,8,43,43,0,570.6705440829974,,570.6615036249859,570.6705440829974,571.659079791978,571.659079791978,571.659079791978,571.659079791978,571.6634000419872,572.658973291982,572.658973291982,573.1443501249887,,,,,x,1,0.48081145697506145,None,3,001,2025-10-01_11h45.19.951, Motor Sequence Learning,,2025.1.1,None,2025-10-01 11h46.48.403798 +0530,
-50,x,44,44,9,x,1,0.4184067909955047,None,,,,,9,44,44,0,573.1541257079807,,573.1449202920194,573.1541257079807,574.1424142500036,574.1424142500036,574.1424142500036,574.1424142500036,574.1478122079861,575.1422417919966,575.1422417919966,575.5656827079947,,,,,x,1,0.4184067909955047,None,3,001,2025-10-01_11h45.19.951, Motor Sequence Learning,,2025.1.1,None,2025-10-01 11h46.48.403798 +0530,
-150,z,45,45,11,z,1,0.35001841600751504,None,,,,,11,45,45,3,575.5753283330123,,575.5662535830052,575.5753283330123,576.5642639169819,576.5642639169819,576.5642639169819,576.5642639169819,576.5642639169819,577.564593875024,577.564593875024,577.916154208011,,,,,z,1,0.35001841600751504,None,3,001,2025-10-01_11h45.19.951, Motor Sequence Learning,,2025.1.1,None,2025-10-01 11h46.48.403798 +0530,
150,v,46,46,13,v,1,0.36026829096954316,None,,,,,13,46,46,1,577.9255113750114,,577.916713958024,577.9255113750114,578.9141360829817,578.9141360829817,578.9141360829817,578.9141360829817,578.9141360829817,579.9143562500249,579.9143562500249,580.2779093749705,,,,,v,1,0.36026829096954316,None,3,001,2025-10-01_11h45.19.951, Motor Sequence Learning,,2025.1.1,None,2025-10-01 11h46.48.403798 +0530,
-150,z,47,47,12,z,1,0.4178316660108976,None,,,,,12,47,47,3,580.2875350419781,,580.2784809999866,580.2875350419781,581.2755696250242,581.2755696250242,581.2755696250242,581.2755696250242,581.2802805830142,582.2756299580215,582.2756299580215,582.6992512500146,,,,,z,1,0.4178316660108976,None,3,001,2025-10-01_11h45.19.951, Motor Sequence Learning,,2025.1.1,None,2025-10-01 11h46.48.403798 +0530,
-150,z,48,48,13,x,0,0.37545945803867653,None,,,,,13,48,48,3,582.7116780829965,,582.6998093749862,582.7116780829965,583.6976717080106,583.6976717080106,583.6976717080106,583.6976717080106,583.7088830419816,584.6990140419803,584.6990140419803,585.0766896670102,,,,,x,0,0.37545945803867653,None,3,001,2025-10-01_11h45.19.951, Motor Sequence Learning,,2025.1.1,None,2025-10-01 11h46.48.403798 +0530,
50,c,49,49,11,c,1,0.4439214160083793,None,,,,,11,49,49,2,585.0825103750103,,585.0771759580239,585.0825103750103,586.0757171249716,586.0757171249716,586.0757171249716,586.0757171249716,586.0811227919767,587.0755561669939,587.0755561669939,587.5275732500013,,,,,c,1,0.4439214160083793,None,3,001,2025-10-01_11h45.19.951, Motor Sequence Learning,,2025.1.1,None,2025-10-01 11h46.48.403798 +0530,
