thisN,thisTrialN,thisRepN,mouse.x,mouse.y,mouse.leftButton,mouse.midButton,mouse.rightButton,mouse.time,mouse.clicked_name,trials.thisRepN,trials.thisTrialN,trials.thisN,trials.thisIndex,thisRow.t,notes,num_distr,trial.started,fixation.started,target.started,mouse.started,trial.stopped,trials.mouse.x,trials.mouse.y,trials.mouse.leftButton,trials.mouse.midButton,trials.mouse.rightButton,trials.mouse.time,trials.mouse.clicked_name,participant,session,date,expName,expVersion,psychopyVersion,frameRate,expStart,
0,0,0,[np.float64(-0.145)],[np.float64(-0.38666666666666666)],[1],[0],[0],[2.125625125016086],['target'],0,0,0,0,0.042991791997337714,,10,0.031057583022629842,0.042991791997337714,0.042991791997337714,0.031071457982761785,2.156718250014819,[np.float64(-0.145)],[np.float64(-0.38666666666666666)],[1],[0],[0],[2.125625125016086],['target'],3,001,2025-09-28_16h56.12.516,Visual Search Experiment,,2025.1.1,None,2025-09-28 16h56.19.731088 +0530,
1,0,1,[np.float64(-0.17)],[np.float64(0.405)],[1],[0],[0],[1.4354907499800902],['target'],1,0,1,0,2.176456875022268,,10,2.1702081670227926,2.176456875022268,2.176456875022268,0.013348166976356879,3.605729375005467,[np.float64(-0.17)],[np.float64(0.405)],[1],[0],[0],[1.4354907499800902],['target'],3,001,2025-09-28_16h56.12.516,Visual Search Experiment,,2025.1.1,None,2025-09-28 16h56.19.731088 +0530,
2,0,2,[np.float64(-0.08833333333333333)],[np.float64(-0.03)],[1],[0],[0],[1.3696925830154214],['target'],2,0,2,0,3.6259083750192076,,10,3.619294792006258,3.6259083750192076,3.6259083750192076,0.013464834017213434,4.989017542015063,[np.float64(-0.08833333333333333)],[np.float64(-0.03)],[1],[0],[0],[1.3696925830154214],['target'],3,001,2025-09-28_16h56.12.516,Visual Search Experiment,,2025.1.1,None,2025-09-28 16h56.19.731088 +0530,
3,0,3,[np.float64(0.3016666666666667)],[np.float64(0.25666666666666665)],[1],[0],[0],[1.2033245419734158],['target'],3,0,3,0,5.008616958017228,,10,5.002361582999583,5.008616958017228,5.008616958017228,0.013242582994280383,6.2057158749958035,[np.float64(0.3016666666666667)],[np.float64(0.25666666666666665)],[1],[0],[0],[1.2033245419734158],['target'],3,001,2025-09-28_16h56.12.516,Visual Search Experiment,,2025.1.1,None,2025-09-28 16h56.19.731088 +0530,
4,0,4,[np.float64(0.028333333333333332)],[np.float64(0.018333333333333333)],[1],[0],[0],[1.0597554580017459],['target'],4,0,4,0,6.217305458005285,,5,6.213106000010157,6.217305458005285,6.217305458005285,0.007287875021575019,7.272891542001162,[np.float64(0.028333333333333332)],[np.float64(0.018333333333333333)],[1],[0],[0],[1.0597554580017459],['target'],3,001,2025-09-28_16h56.12.516,Visual Search Experiment,,2025.1.1,None,2025-09-28 16h56.19.731088 +0530,
5,0,5,[np.float64(-0.48333333333333334)],[np.float64(0.48)],[1],[0],[0],[2.2927196249947883],['target'],5,0,5,0,7.284177458001068,,5,7.280006333021447,7.284177458001068,7.284177458001068,0.0070118330186232924,9.572757417015964,[np.float64(-0.48333333333333334)],[np.float64(0.48)],[1],[0],[0],[2.2927196249947883],['target'],3,001,2025-09-28_16h56.12.516,Visual Search Experiment,,2025.1.1,None,2025-09-28 16h56.19.731088 +0530,
6,0,6,[np.float64(-0.045)],[np.float64(0.35333333333333333)],[1],[0],[0],[1.4096136250009295],['target'],6,0,6,0,9.584332625003299,,5,9.579937458009226,9.584332625003299,9.584332625003299,0.007090291008353233,10.98958429202321,[np.float64(-0.045)],[np.float64(0.35333333333333333)],[1],[0],[0],[1.4096136250009295],['target'],3,001,2025-09-28_16h56.12.516,Visual Search Experiment,,2025.1.1,None,2025-09-28 16h56.19.731088 +0530,
7,0,7,[np.float64(0.2916666666666667)],[np.float64(-0.07)],[1],[0],[0],[2.4860328750219196],['target'],7,0,7,0,11.009509249997791,,10,11.003071083017858,11.009509249997791,11.009509249997791,0.013371416018344462,13.489135167008499,[np.float64(0.2916666666666667)],[np.float64(-0.07)],[1],[0],[0],[2.4860328750219196],['target'],3,001,2025-09-28_16h56.12.516,Visual Search Experiment,,2025.1.1,None,2025-09-28 16h56.19.731088 +0530,
8,0,8,[np.float64(-0.21666666666666667)],[np.float64(0.4216666666666667)],[1],[0],[0],[3.6863149590208195],['target'],8,0,8,0,13.509056542010512,,10,13.502678542019567,13.509056542010512,13.509056542010512,0.013444040989270434,17.189023333019577,[np.float64(-0.21666666666666667)],[np.float64(0.4216666666666667)],[1],[0],[0],[3.6863149590208195],['target'],3,001,2025-09-28_16h56.12.516,Visual Search Experiment,,2025.1.1,None,2025-09-28 16h56.19.731088 +0530,
9,0,9,[np.float64(-0.315)],[np.float64(-0.26166666666666666)],[1],[0],[0],[1.5695571249816567],['target'],9,0,9,0,17.209000250004465,,10,17.202790542010916,17.209000250004465,17.209000250004465,0.013665208010934293,18.772377625020454,[np.float64(-0.315)],[np.float64(-0.26166666666666666)],[1],[0],[0],[1.5695571249816567],['target'],3,001,2025-09-28_16h56.12.516,Visual Search Experiment,,2025.1.1,None,2025-09-28 16h56.19.731088 +0530,
10,0,10,[np.float64(0.4033333333333333)],[np.float64(-0.065)],[1],[0],[0],[1.7701937500096392],['target'],10,0,10,0,18.791811417002464,,10,18.785643042006996,18.791811417002464,18.791811417002464,0.013166667020414025,20.55586679201224,[np.float64(0.4033333333333333)],[np.float64(-0.065)],[1],[0],[0],[1.7701937500096392],['target'],3,001,2025-09-28_16h56.12.516,Visual Search Experiment,,2025.1.1,None,2025-09-28 16h56.19.731088 +0530,
11,0,11,[np.float64(-0.01)],[np.float64(0.051666666666666666)],[1],[0],[0],[5.636432708008215],['target'],11,0,11,0,20.575420833018143,,10,20.569227583007887,20.575420833018143,20.575420833018143,0.013247791008325294,26.20569070801139,[np.float64(-0.01)],[np.float64(0.051666666666666666)],[1],[0],[0],[5.636432708008215],['target'],3,001,2025-09-28_16h56.12.516,Visual Search Experiment,,2025.1.1,None,2025-09-28 16h56.19.731088 +0530,
12,0,12,[np.float64(0.10333333333333333)],[np.float64(0.19166666666666668)],[1],[0],[0],[1.2027664170018397],['target'],12,0,12,0,26.226058250002097,,10,26.21963333300664,26.226058250002097,26.226058250002097,0.013840500003425404,27.42239508300554,[np.float64(0.10333333333333333)],[np.float64(0.19166666666666668)],[1],[0],[0],[1.2027664170018397],['target'],3,001,2025-09-28_16h56.12.516,Visual Search Experiment,,2025.1.1,None,2025-09-28 16h56.19.731088 +0530,
13,0,13,[np.float64(-0.13833333333333334)],[np.float64(0.44)],[1],[0],[0],[1.91972624999471],['target'],13,0,13,0,27.442182583006797,,10,27.435938917013118,27.442182583006797,27.442182583006797,0.013445125019643456,29.355696458020248,[np.float64(-0.13833333333333334)],[np.float64(0.44)],[1],[0],[0],[1.91972624999471],['target'],3,001,2025-09-28_16h56.12.516,Visual Search Experiment,,2025.1.1,None,2025-09-28 16h56.19.731088 +0530,
14,0,14,[np.float64(-0.23666666666666666)],[np.float64(0.0016666666666666668)],[1],[0],[0],[3.1699814579915255],['target'],14,0,14,0,29.375461292016553,,10,29.369174499996006,29.375461292016553,29.375461292016553,0.013374915986787528,32.53918745802366,[np.float64(-0.23666666666666666)],[np.float64(0.0016666666666666668)],[1],[0],[0],[3.1699814579915255],['target'],3,001,2025-09-28_16h56.12.516,Visual Search Experiment,,2025.1.1,None,2025-09-28 16h56.19.731088 +0530,
15,0,15,[np.float64(-0.4633333333333333)],[np.float64(-0.09666666666666666)],[1],[0],[0],[2.676480916008586],['target'],15,0,15,0,32.55054916700465,,5,32.5463320830022,32.55054916700465,32.55054916700465,0.007033750007394701,35.22285516699776,[np.float64(-0.4633333333333333)],[np.float64(-0.09666666666666666)],[1],[0],[0],[2.676480916008586],['target'],3,001,2025-09-28_16h56.12.516,Visual Search Experiment,,2025.1.1,None,2025-09-28 16h56.19.731088 +0530,
16,0,16,[np.float64(-0.455)],[np.float64(0.375)],[1],[0],[0],[1.692171916976804],[None],16,0,16,0,35.2342584580183,,5,35.23003800000879,35.2342584580183,35.2342584580183,0.007104000018443912,36.922238166996976,[np.float64(-0.455)],[np.float64(0.375)],[1],[0],[0],[1.692171916976804],[None],3,001,2025-09-28_16h56.12.516,Visual Search Experiment,,2025.1.1,None,2025-09-28 16h56.19.731088 +0530,
17,0,17,[np.float64(-0.4483333333333333)],[np.float64(0.4683333333333333)],[1],[0],[0],[0.9099770419998094],['target'],17,0,17,0,36.93376270800945,,5,36.92950708299759,36.93376270800945,36.93376270800945,0.007185333000961691,37.83951016701758,[np.float64(-0.4483333333333333)],[np.float64(0.4683333333333333)],[1],[0],[0],[0.9099770419998094],['target'],3,001,2025-09-28_16h56.12.516,Visual Search Experiment,,2025.1.1,None,2025-09-28 16h56.19.731088 +0530,
18,0,18,[np.float64(-0.405)],[np.float64(-0.3566666666666667)],[1],[0],[0],[1.3028135829954408],['target'],18,0,18,0,37.85897212501732,,10,37.852772542013554,37.85897212501732,37.85897212501732,0.013181624992284924,39.15561362501467,[np.float64(-0.405)],[np.float64(-0.3566666666666667)],[1],[0],[0],[1.3028135829954408],['target'],3,001,2025-09-28_16h56.12.516,Visual Search Experiment,,2025.1.1,None,2025-09-28 16h56.19.731088 +0530,
19,0,19,[np.float64(0.4483333333333333)],[np.float64(0.30333333333333334)],[1],[0],[0],[1.5765543330053333],['target'],19,0,19,0,39.16708199999994,,5,39.162836583011085,39.16708199999994,39.16708199999994,0.0071215830103028566,40.739420750003774,[np.float64(0.4483333333333333)],[np.float64(0.30333333333333334)],[1],[0],[0],[1.5765543330053333],['target'],3,001,2025-09-28_16h56.12.516,Visual Search Experiment,,2025.1.1,None,2025-09-28 16h56.19.731088 +0530,
20,0,20,[np.float64(0.44166666666666665)],[np.float64(0.20166666666666666)],[1],[0],[0],[2.5930595000099856],['target'],20,0,20,0,40.759013041999424,,10,40.7527850830229,40.759013041999424,40.759013041999424,0.013285875000292435,43.3458980830037,[np.float64(0.44166666666666665)],[np.float64(0.20166666666666666)],[1],[0],[0],[2.5930595000099856],['target'],3,001,2025-09-28_16h56.12.516,Visual Search Experiment,,2025.1.1,None,2025-09-28 16h56.19.731088 +0530,
21,0,21,[np.float64(-0.26666666666666666)],[np.float64(0.23333333333333334)],[1],[0],[0],[1.064359042007709],['target'],21,0,21,0,43.371746417018585,,10,43.36450579200755,43.371746417018585,43.371746417018585,0.018418833991745487,44.428907207999146,[np.float64(-0.26666666666666666)],[np.float64(0.23333333333333334)],[1],[0],[0],[1.064359042007709],['target'],3,001,2025-09-28_16h56.12.516,Visual Search Experiment,,2025.1.1,None,2025-09-28 16h56.19.731088 +0530,
22,0,22,[np.float64(0.445)],[np.float64(-0.2)],[1],[0],[0],[1.4398574579972774],['target'],22,0,22,0,44.444500250014244,,5,44.43901083301171,44.444500250014244,44.444500250014244,0.009965959005057812,45.8789226670051,[np.float64(0.445)],[np.float64(-0.2)],[1],[0],[0],[1.4398574579972774],['target'],3,001,2025-09-28_16h56.12.516,Visual Search Experiment,,2025.1.1,None,2025-09-28 16h56.19.731088 +0530,
23,0,23,[np.float64(0.37666666666666665)],[np.float64(0.045)],[1],[0],[0],[1.6302689999865834],['target'],23,0,23,0,45.90703566701268,,10,45.89954141702037,45.90703566701268,45.90703566701268,0.020480082981521264,47.529852083011065,[np.float64(0.37666666666666665)],[np.float64(0.045)],[1],[0],[0],[1.6302689999865834],['target'],3,001,2025-09-28_16h56.12.516,Visual Search Experiment,,2025.1.1,None,2025-09-28 16h56.19.731088 +0530,
24,0,24,[np.float64(-0.09666666666666666)],[np.float64(0.29333333333333333)],[1],[0],[0],[1.4289018339768518],['target'],24,0,24,0,47.558090125006856,,10,47.5496562080225,47.558090125006856,47.558090125006856,0.0196392499783542,48.97860125001171,[np.float64(-0.09666666666666666)],[np.float64(0.29333333333333333)],[1],[0],[0],[1.4289018339768518],['target'],3,001,2025-09-28_16h56.12.516,Visual Search Experiment,,2025.1.1,None,2025-09-28 16h56.19.731088 +0530,
25,0,25,[np.float64(-0.06666666666666667)],[np.float64(0.13166666666666665)],[1],[0],[0],[1.0222647500049789],['target'],25,0,25,0,48.99620687501738,,5,48.989973707997706,48.99620687501738,48.99620687501738,0.011197708983672783,50.012298333022045,[np.float64(-0.06666666666666667)],[np.float64(0.13166666666666665)],[1],[0],[0],[1.0222647500049789],['target'],3,001,2025-09-28_16h56.12.516,Visual Search Experiment,,2025.1.1,None,2025-09-28 16h56.19.731088 +0530,
26,0,26,[np.float64(-0.005)],[np.float64(-0.17833333333333334)],[1],[0],[0],[1.2231395830167457],['target'],26,0,26,0,50.03095966699766,,5,50.024239874997875,50.03095966699766,50.03095966699766,0.011772917001508176,51.24743958300678,[np.float64(-0.005)],[np.float64(-0.17833333333333334)],[1],[0],[0],[1.2231395830167457],['target'],3,001,2025-09-28_16h56.12.516,Visual Search Experiment,,2025.1.1,None,2025-09-28 16h56.19.731088 +0530,
27,0,27,[np.float64(0.155)],[np.float64(-0.06666666666666667)],[1],[0],[0],[0.9094538329809438],['target'],27,0,27,0,51.27691841701744,,10,51.269011708005564,51.27691841701744,51.27691841701744,0.02140645802137442,52.17850725000608,[np.float64(0.155)],[np.float64(-0.06666666666666667)],[1],[0],[0],[0.9094538329809438],['target'],3,001,2025-09-28_16h56.12.516,Visual Search Experiment,,2025.1.1,None,2025-09-28 16h56.19.731088 +0530,
28,0,28,[np.float64(0.023333333333333334)],[np.float64(-0.23)],[1],[0],[0],[1.1314615409937687],['target'],28,0,28,0,52.20498758301255,,10,52.19758441700833,52.20498758301255,52.20498758301255,0.018913417006842792,53.32908704201691,[np.float64(0.023333333333333334)],[np.float64(-0.23)],[1],[0],[0],[1.1314615409937687],['target'],3,001,2025-09-28_16h56.12.516,Visual Search Experiment,,2025.1.1,None,2025-09-28 16h56.19.731088 +0530,
29,0,29,[np.float64(0.135)],[np.float64(-0.385)],[1],[0],[0],[2.365539417020045],['target'],29,0,29,0,53.354738374997396,,10,53.347621667024214,53.354738374997396,53.354738374997396,0.018370167003013194,55.71320762499818,[np.float64(0.135)],[np.float64(-0.385)],[1],[0],[0],[2.365539417020045],['target'],3,001,2025-09-28_16h56.12.516,Visual Search Experiment,,2025.1.1,None,2025-09-28 16h56.19.731088 +0530,
30,0,30,[np.float64(-0.11166666666666666)],[np.float64(-0.405)],[1],[0],[0],[3.58009554099408],['target'],30,0,30,0,55.7407216670108,,10,55.73298558301758,55.7407216670108,55.7407216670108,0.01960691701970063,59.31312366700149,[np.float64(-0.11166666666666666)],[np.float64(-0.405)],[1],[0],[0],[3.58009554099408],['target'],3,001,2025-09-28_16h56.12.516,Visual Search Experiment,,2025.1.1,None,2025-09-28 16h56.19.731088 +0530,
31,0,31,[np.float64(0.40166666666666667)],[np.float64(0.4083333333333333)],[1],[0],[0],[1.7064965830068104],['target'],31,0,31,0,59.33060408302117,,5,59.32438050000928,59.33060408302117,59.33060408302117,0.011092166998423636,61.030937333009206,[np.float64(0.40166666666666667)],[np.float64(0.4083333333333333)],[1],[0],[0],[1.7064965830068104],['target'],3,001,2025-09-28_16h56.12.516,Visual Search Experiment,,2025.1.1,None,2025-09-28 16h56.19.731088 +0530,
32,0,32,[np.float64(0.31166666666666665)],[np.float64(0.105)],[1],[0],[0],[1.7852238749910612],['target'],32,0,32,0,61.05144220800139,,10,61.043312000023434,61.05144220800139,61.05144220800139,0.012203749996842816,62.82858391699847,[np.float64(0.31166666666666665)],[np.float64(0.105)],[1],[0],[0],[1.7852238749910612],['target'],3,001,2025-09-28_16h56.12.516,Visual Search Experiment,,2025.1.1,None,2025-09-28 16h56.19.731088 +0530,
33,0,33,[np.float64(0.008333333333333333)],[np.float64(-0.2783333333333333)],[1],[0],[0],[2.355712709017098],['target'],33,0,33,0,62.84546679200139,,5,62.839403917023446,62.84546679200139,62.84546679200139,0.010657166014425457,65.1951772920147,[np.float64(0.008333333333333333)],[np.float64(-0.2783333333333333)],[1],[0],[0],[2.355712709017098],['target'],3,001,2025-09-28_16h56.12.516,Visual Search Experiment,,2025.1.1,None,2025-09-28 16h56.19.731088 +0530,
34,0,34,[np.float64(-0.26166666666666666)],[np.float64(0.23166666666666666)],[1],[0],[0],[2.788220124988584],['target'],34,0,34,0,65.21470404200954,,5,65.20807383299689,65.21470404200954,65.21470404200954,0.012713500007521361,67.99638258302002,[np.float64(-0.26166666666666666)],[np.float64(0.23166666666666666)],[1],[0],[0],[2.788220124988584],['target'],3,001,2025-09-28_16h56.12.516,Visual Search Experiment,,2025.1.1,None,2025-09-28 16h56.19.731088 +0530,
35,0,35,[np.float64(0.10333333333333333)],[np.float64(0.195)],[1],[0],[0],[1.2266032920160796],['target'],35,0,35,0,68.02739470801316,,10,68.01888450002298,68.02739470801316,68.02739470801316,0.022267541993642226,69.24553133299924,[np.float64(0.10333333333333333)],[np.float64(0.195)],[1],[0],[0],[1.2266032920160796],['target'],3,001,2025-09-28_16h56.12.516,Visual Search Experiment,,2025.1.1,None,2025-09-28 16h56.19.731088 +0530,
36,0,36,[np.float64(-0.4116666666666667)],[np.float64(0.24166666666666667)],[1],[0],[0],[1.6918460839951877],['target'],36,0,36,0,69.26200058299582,,5,69.25619391701184,69.26200058299582,69.26200058299582,0.010493542009498924,70.94810441700974,[np.float64(-0.4116666666666667)],[np.float64(0.24166666666666667)],[1],[0],[0],[1.6918460839951877],['target'],3,001,2025-09-28_16h56.12.516,Visual Search Experiment,,2025.1.1,None,2025-09-28 16h56.19.731088 +0530,
37,0,37,[np.float64(0.06666666666666667)],[np.float64(-0.31166666666666665)],[1],[0],[0],[2.034931125002913],['target'],37,0,37,0,70.9680159999989,,5,70.9612896250037,70.9680159999989,70.9680159999989,0.013017916004173458,72.99623583300854,[np.float64(0.06666666666666667)],[np.float64(-0.31166666666666665)],[1],[0],[0],[2.034931125002913],['target'],3,001,2025-09-28_16h56.12.516,Visual Search Experiment,,2025.1.1,None,2025-09-28 16h56.19.731088 +0530,
38,0,38,[np.float64(-0.3466666666666667)],[np.float64(0.325)],[1],[0],[0],[2.260916333005298],['target'],38,0,38,0,73.00529625001946,,5,73.00128591700923,73.00529625001946,73.00529625001946,0.004988667002180591,75.26226837502327,[np.float64(-0.3466666666666667)],[np.float64(0.325)],[1],[0],[0],[2.260916333005298],['target'],3,001,2025-09-28_16h56.12.516,Visual Search Experiment,,2025.1.1,None,2025-09-28 16h56.19.731088 +0530,
39,0,39,[np.float64(0.08)],[np.float64(-0.3933333333333333)],[1],[0],[0],[2.422385541984113],['target'],39,0,39,0,75.28205450001406,,5,75.27529337501619,75.28205450001406,75.28205450001406,0.012843375006923452,77.69773879201966,[np.float64(0.08)],[np.float64(-0.3933333333333333)],[1],[0],[0],[2.422385541984113],['target'],3,001,2025-09-28_16h56.12.516,Visual Search Experiment,,2025.1.1,None,2025-09-28 16h56.19.731088 +0530,
40,0,40,[np.float64(0.4683333333333333)],[np.float64(-0.225)],[1],[0],[0],[2.06813775000046],['target'],40,0,40,0,77.71799791700323,,5,77.71130137500586,77.71799791700323,77.71799791700323,0.013394541980233043,79.779505833023,[np.float64(0.4683333333333333)],[np.float64(-0.225)],[1],[0],[0],[2.06813775000046],['target'],3,001,2025-09-28_16h56.12.516,Visual Search Experiment,,2025.1.1,None,2025-09-28 16h56.19.731088 +0530,
41,0,41,[np.float64(0.0033333333333333335)],[np.float64(0.245)],[1],[0],[0],[1.6527574580104556],['target'],41,0,41,0,79.79927491702256,,5,79.79267520800931,79.79927491702256,79.79927491702256,0.0129973340081051,81.4454919170239,[np.float64(0.0033333333333333335)],[np.float64(0.245)],[1],[0],[0],[1.6527574580104556],['target'],3,001,2025-09-28_16h56.12.516,Visual Search Experiment,,2025.1.1,None,2025-09-28 16h56.19.731088 +0530,
42,0,42,[np.float64(0.023333333333333334)],[np.float64(0.12166666666666667)],[1],[0],[0],[0.8061178749776445],['target'],42,0,42,0,81.46380150000914,,5,81.45720491700922,81.46380150000914,81.46380150000914,0.011535833997186273,82.26338195800781,[np.float64(0.023333333333333334)],[np.float64(0.12166666666666667)],[1],[0],[0],[0.8061178749776445],['target'],3,001,2025-09-28_16h56.12.516,Visual Search Experiment,,2025.1.1,None,2025-09-28 16h56.19.731088 +0530,
43,0,43,[np.float64(0.2683333333333333)],[np.float64(-0.03)],[1],[0],[0],[1.1447364170162473],['target'],43,0,43,0,82.29374208301306,,10,82.2850730420032,82.29374208301306,82.29374208301306,0.021524084004340693,83.42984920801246,[np.float64(0.2683333333333333)],[np.float64(-0.03)],[1],[0],[0],[1.1447364170162473],['target'],3,001,2025-09-28_16h56.12.516,Visual Search Experiment,,2025.1.1,None,2025-09-28 16h56.19.731088 +0530,
44,0,44,[np.float64(0.27)],[np.float64(0.2633333333333333)],[1],[0],[0],[1.3958724999974947],['target'],44,0,44,0,83.45736808300717,,10,83.44949116700445,83.45736808300717,83.45736808300717,0.019480250019114465,84.8453976669989,[np.float64(0.27)],[np.float64(0.2633333333333333)],[1],[0],[0],[1.3958724999974947],['target'],3,001,2025-09-28_16h56.12.516,Visual Search Experiment,,2025.1.1,None,2025-09-28 16h56.19.731088 +0530,
45,0,45,[np.float64(0.37)],[np.float64(-0.011666666666666667)],[1],[0],[0],[1.108458000002429],['target'],45,0,45,0,84.86141058302019,,5,84.85529979201965,84.86141058302019,84.86141058302019,0.009761999972397462,85.96386520800297,[np.float64(0.37)],[np.float64(-0.011666666666666667)],[1],[0],[0],[1.108458000002429],['target'],3,001,2025-09-28_16h56.12.516,Visual Search Experiment,,2025.1.1,None,2025-09-28 16h56.19.731088 +0530,
46,0,46,[np.float64(0.14833333333333334)],[np.float64(-0.4533333333333333)],[1],[0],[0],[2.0391832499881275],['target'],46,0,46,0,85.99083933301154,,10,85.98301916700439,85.99083933301154,85.99083933301154,0.01894054200965911,88.02222750001238,[np.float64(0.14833333333333334)],[np.float64(-0.4533333333333333)],[1],[0],[0],[2.0391832499881275],['target'],3,001,2025-09-28_16h56.12.516,Visual Search Experiment,,2025.1.1,None,2025-09-28 16h56.19.731088 +0530,
47,0,47,[np.float64(-0.15666666666666668)],[np.float64(0.3333333333333333)],[1],[0],[0],[1.232628833007766],['target'],47,0,47,0,88.03354045801098,,5,88.02925849999883,88.03354045801098,88.03354045801098,0.0069267500075511634,89.2619537920109,[np.float64(-0.15666666666666668)],[np.float64(0.3333333333333333)],[1],[0],[0],[1.232628833007766],['target'],3,001,2025-09-28_16h56.12.516,Visual Search Experiment,,2025.1.1,None,2025-09-28 16h56.19.731088 +0530,
48,0,48,[np.float64(-0.051666666666666666)],[np.float64(-0.4266666666666667)],[1],[0],[0],[2.4543378340022173],['target'],48,0,48,0,89.28081170801306,,5,89.27407370801666,89.28081170801306,89.28081170801306,0.011949833016842604,91.72847195802024,[np.float64(-0.051666666666666666)],[np.float64(-0.4266666666666667)],[1],[0],[0],[2.4543378340022173],['target'],3,001,2025-09-28_16h56.12.516,Visual Search Experiment,,2025.1.1,None,2025-09-28 16h56.19.731088 +0530,
49,0,49,[np.float64(-0.23166666666666666)],[np.float64(-0.49)],[1],[0],[0],[1.8064030410023406],[None],49,0,49,0,91.74819400001434,,5,91.74146379201557,91.74819400001434,91.74819400001434,0.012813709006877616,93.54797062501893,[np.float64(-0.23166666666666666)],[np.float64(-0.49)],[1],[0],[0],[1.8064030410023406],[None],3,001,2025-09-28_16h56.12.516,Visual Search Experiment,,2025.1.1,None,2025-09-28 16h56.19.731088 +0530,
50,0,50,[np.float64(-0.4216666666666667)],[np.float64(-0.07833333333333334)],[1],[0],[0],[2.0076874579826836],['target'],50,0,50,0,93.57957016699947,,10,93.57068649999565,93.57957016699947,93.57957016699947,0.02251162499305792,95.57841466701939,[np.float64(-0.4216666666666667)],[np.float64(-0.07833333333333334)],[1],[0],[0],[2.0076874579826836],['target'],3,001,2025-09-28_16h56.12.516,Visual Search Experiment,,2025.1.1,None,2025-09-28 16h56.19.731088 +0530,
51,0,51,[np.float64(0.43333333333333335)],[np.float64(0.2733333333333333)],[1],[0],[0],[1.7814147910103202],['target'],51,0,51,0,95.6041458749969,,10,95.59688362499583,95.6041458749969,95.6041458749969,0.018300750001799315,97.37834258301882,[np.float64(0.43333333333333335)],[np.float64(0.2733333333333333)],[1],[0],[0],[1.7814147910103202],['target'],3,001,2025-09-28_16h56.12.516,Visual Search Experiment,,2025.1.1,None,2025-09-28 16h56.19.731088 +0530,
52,0,52,[np.float64(-0.23666666666666666)],[np.float64(-0.08833333333333333)],[1],[0],[0],[1.4917631249991246],['target'],52,0,52,0,97.39545100001851,,5,97.38921283301897,97.39545100001851,97.39545100001851,0.010704999993322417,98.88103654200677,[np.float64(-0.23666666666666666)],[np.float64(-0.08833333333333333)],[1],[0],[0],[1.4917631249991246],['target'],3,001,2025-09-28_16h56.12.516,Visual Search Experiment,,2025.1.1,None,2025-09-28 16h56.19.731088 +0530,
53,0,53,[np.float64(0.16666666666666666)],[np.float64(-0.10833333333333334)],[1],[0],[0],[1.620148333022371],['target'],53,0,53,0,98.96242608301691,,5,98.95823608300998,98.96242608301691,98.96242608301691,0.0770291659864597,100.57843208301347,[np.float64(0.16666666666666666)],[np.float64(-0.10833333333333334)],[1],[0],[0],[1.620148333022371],['target'],3,001,2025-09-28_16h56.12.516,Visual Search Experiment,,2025.1.1,None,2025-09-28 16h56.19.731088 +0530,
54,0,54,[np.float64(-0.18333333333333332)],[np.float64(-0.07833333333333334)],[1],[0],[0],[1.097158542019315],['target'],54,0,54,0,100.60646462501609,,10,100.59832729201298,100.60646462501609,100.60646462501609,0.019745124998735264,101.69552879201365,[np.float64(-0.18333333333333332)],[np.float64(-0.07833333333333334)],[1],[0],[0],[1.097158542019315],['target'],3,001,2025-09-28_16h56.12.516,Visual Search Experiment,,2025.1.1,None,2025-09-28 16h56.19.731088 +0530,
55,0,55,[np.float64(-0.27)],[np.float64(0.29)],[1],[0],[0],[1.631973667012062],['target'],55,0,55,0,101.72046962499735,,10,101.71350595800322,101.72046962499735,101.72046962499735,0.017813249985920265,103.3455195419956,[np.float64(-0.27)],[np.float64(0.29)],[1],[0],[0],[1.631973667012062],['target'],3,001,2025-09-28_16h56.12.516,Visual Search Experiment,,2025.1.1,None,2025-09-28 16h56.19.731088 +0530,
56,0,56,[np.float64(-0.22)],[np.float64(0.17333333333333334)],[1],[0],[0],[0.7071418330015149],['target'],56,0,56,0,103.36112391701317,,5,103.35506375000114,103.36112391701317,103.36112391701317,0.009408499987330288,104.06226558302296,[np.float64(-0.22)],[np.float64(0.17333333333333334)],[1],[0],[0],[0.7071418330015149],['target'],3,001,2025-09-28_16h56.12.516,Visual Search Experiment,,2025.1.1,None,2025-09-28 16h56.19.731088 +0530,
57,0,57,[np.float64(0.045)],[np.float64(0.095)],[1],[0],[0],[1.0206159999943338],['target'],57,0,57,0,104.08081037501688,,5,104.07423270802246,104.08081037501688,104.08081037501688,0.011795958009315655,105.09489420801401,[np.float64(0.045)],[np.float64(0.095)],[1],[0],[0],[1.0206159999943338],['target'],3,001,2025-09-28_16h56.12.516,Visual Search Experiment,,2025.1.1,None,2025-09-28 16h56.19.731088 +0530,
58,0,58,[np.float64(-0.21333333333333335)],[np.float64(-0.24166666666666667)],[1],[0],[0],[1.2413974159862846],['target'],58,0,58,0,105.11299545801012,,5,105.10624804202234,105.11299545801012,105.11299545801012,0.01122449999093078,106.34770454201498,[np.float64(-0.21333333333333335)],[np.float64(-0.24166666666666667)],[1],[0],[0],[1.2413974159862846],['target'],3,001,2025-09-28_16h56.12.516,Visual Search Experiment,,2025.1.1,None,2025-09-28 16h56.19.731088 +0530,
59,0,59,[np.float64(0.02666666666666667)],[np.float64(0.36666666666666664)],[1],[0],[0],[1.22412341699237],['target'],59,0,59,0,106.35803245799616,,5,106.35399275002419,106.35803245799616,106.35803245799616,0.0061189169937279075,107.57816658299998,[np.float64(0.02666666666666667)],[np.float64(0.36666666666666664)],[1],[0],[0],[1.22412341699237],['target'],3,001,2025-09-28_16h56.12.516,Visual Search Experiment,,2025.1.1,None,2025-09-28 16h56.19.731088 +0530,
60,0,60,[np.float64(0.38)],[np.float64(0.11833333333333333)],[1],[0],[0],[1.5397474170022178],['target'],60,0,60,0,107.59578375000274,,5,107.58944691700162,107.59578375000274,107.59578375000274,0.01114654098637402,109.12925399999949,[np.float64(0.38)],[np.float64(0.11833333333333333)],[1],[0],[0],[1.5397474170022178],['target'],3,001,2025-09-28_16h56.12.516,Visual Search Experiment,,2025.1.1,None,2025-09-28 16h56.19.731088 +0530,
61,0,61,[np.float64(0.20166666666666666)],[np.float64(0.11166666666666666)],[1],[0],[0],[2.9123962089943234],['target'],61,0,61,0,109.1600853750133,,10,109.15083904200583,109.1600853750133,109.1600853750133,0.02141041701543145,112.0632768330106,[np.float64(0.20166666666666666)],[np.float64(0.11166666666666666)],[1],[0],[0],[2.9123962089943234],['target'],3,001,2025-09-28_16h56.12.516,Visual Search Experiment,,2025.1.1,None,2025-09-28 16h56.19.731088 +0530,
62,0,62,[np.float64(-0.33)],[np.float64(0.44333333333333336)],[1],[0],[0],[2.1646849589888006],['target'],62,0,62,0,112.08144308300689,,5,112.07492758301669,112.08144308300689,112.08144308300689,0.011489708005683497,114.23964149999665,[np.float64(-0.33)],[np.float64(0.44333333333333336)],[1],[0],[0],[2.1646849589888006],['target'],3,001,2025-09-28_16h56.12.516,Visual Search Experiment,,2025.1.1,None,2025-09-28 16h56.19.731088 +0530,
63,0,63,[np.float64(-0.29833333333333334)],[np.float64(-0.41)],[1],[0],[0],[2.6610578330000862],['target'],63,0,63,0,114.2585264579975,,10,114.2523233749962,114.2585264579975,114.2585264579975,0.012596792017575353,116.91343991699978,[np.float64(-0.29833333333333334)],[np.float64(-0.41)],[1],[0],[0],[2.6610578330000862],['target'],3,001,2025-09-28_16h56.12.516,Visual Search Experiment,,2025.1.1,None,2025-09-28 16h56.19.731088 +0530,
64,0,64,[np.float64(-0.17)],[np.float64(-0.105)],[1],[0],[0],[1.062979666981846],['target'],64,0,64,0,116.94139449999784,,10,116.93322195799556,116.94139449999784,116.94139449999784,0.01960287499241531,117.99624245800078,[np.float64(-0.17)],[np.float64(-0.105)],[1],[0],[0],[1.062979666981846],['target'],3,001,2025-09-28_16h56.12.516,Visual Search Experiment,,2025.1.1,None,2025-09-28 16h56.19.731088 +0530,
65,0,65,[np.float64(-0.36333333333333334)],[np.float64(0.43)],[1],[0],[0],[1.605615874985233],['target'],65,0,65,0,118.01333804201568,,5,118.00682500001858,118.01333804201568,118.01333804201568,0.010420875012641773,119.61248695800896,[np.float64(-0.36333333333333334)],[np.float64(0.43)],[1],[0],[0],[1.605615874985233],['target'],3,001,2025-09-28_16h56.12.516,Visual Search Experiment,,2025.1.1,None,2025-09-28 16h56.19.731088 +0530,
66,0,66,[np.float64(-0.25)],[np.float64(0.25666666666666665)],[1],[0],[0],[1.5217922919837292],['target'],66,0,66,0,119.63079466699855,,5,119.62403737500426,119.63079466699855,119.63079466699855,0.011380540992831811,121.14588962501148,[np.float64(-0.25)],[np.float64(0.25666666666666665)],[1],[0],[0],[1.5217922919837292],['target'],3,001,2025-09-28_16h56.12.516,Visual Search Experiment,,2025.1.1,None,2025-09-28 16h56.19.731088 +0530,
67,0,67,[np.float64(-0.3433333333333333)],[np.float64(0.47)],[1],[0],[0],[1.0704067920160014],['target'],67,0,67,0,121.16542104200926,,5,121.15819141702377,121.16542104200926,121.16542104200926,0.012136250006733462,122.22866229200736,[np.float64(-0.3433333333333333)],[np.float64(0.47)],[1],[0],[0],[1.0704067920160014],['target'],3,001,2025-09-28_16h56.12.516,Visual Search Experiment,,2025.1.1,None,2025-09-28 16h56.19.731088 +0530,
68,0,68,[np.float64(0.18666666666666668)],[np.float64(-0.12333333333333334)],[1],[0],[0],[1.5048005830030888],['target'],68,0,68,0,122.24742324999534,,5,122.24082483301754,122.24742324999534,122.24742324999534,0.011998250003671274,123.74568466699566,[np.float64(0.18666666666666668)],[np.float64(-0.12333333333333334)],[1],[0],[0],[1.5048005830030888],['target'],3,001,2025-09-28_16h56.12.516,Visual Search Experiment,,2025.1.1,None,2025-09-28 16h56.19.731088 +0530,
69,0,69,[np.float64(-0.18833333333333332)],[np.float64(-0.26)],[1],[0],[0],[1.0705992500006687],['target'],69,0,69,0,123.76479416701477,,5,123.75797891701222,123.76479416701477,123.76479416701477,0.012123916007112712,124.82863666702178,[np.float64(-0.18833333333333332)],[np.float64(-0.26)],[1],[0],[0],[1.0705992500006687],['target'],3,001,2025-09-28_16h56.12.516,Visual Search Experiment,,2025.1.1,None,2025-09-28 16h56.19.731088 +0530,
70,0,70,[np.float64(0.38)],[np.float64(-0.4816666666666667)],[1],[0],[0],[2.149373791005928],['target'],70,0,70,0,124.8465575420123,,5,124.84005954200984,124.8465575420123,124.8465575420123,0.01125087501714006,126.98946254199836,[np.float64(0.38)],[np.float64(-0.4816666666666667)],[1],[0],[0],[2.149373791005928],['target'],3,001,2025-09-28_16h56.12.516,Visual Search Experiment,,2025.1.1,None,2025-09-28 16h56.19.731088 +0530,
71,0,71,[np.float64(0.34833333333333333)],[np.float64(-0.42833333333333334)],[1],[0],[0],[1.5669150839967187],['target'],71,0,71,0,127.00064225000096,,5,126.99635525001213,127.00064225000096,127.00064225000096,0.00679229199886322,128.5633319580229,[np.float64(0.34833333333333333)],[np.float64(-0.42833333333333334)],[1],[0],[0],[1.5669150839967187],['target'],3,001,2025-09-28_16h56.12.516,Visual Search Experiment,,2025.1.1,None,2025-09-28 16h56.19.731088 +0530,
72,0,72,[np.float64(0.12666666666666668)],[np.float64(0.28)],[1],[0],[0],[2.238059958006488],['target'],72,0,72,0,128.58192008300102,,5,128.5752553330094,128.58192008300102,128.58192008300102,0.011759749992052093,130.8133740000194,[np.float64(0.12666666666666668)],[np.float64(0.28)],[1],[0],[0],[2.238059958006488],['target'],3,001,2025-09-28_16h56.12.516,Visual Search Experiment,,2025.1.1,None,2025-09-28 16h56.19.731088 +0530,
73,0,73,[np.float64(0.5033333333333333)],[np.float64(0.4066666666666667)],[1],[0],[0],[1.8525321249908302],['target'],73,0,73,0,130.83337916701566,,5,130.82663504200173,130.83337916701566,130.83337916701566,0.013097082992317155,132.67923829201027,[np.float64(0.5033333333333333)],[np.float64(0.4066666666666667)],[1],[0],[0],[1.8525321249908302],['target'],3,001,2025-09-28_16h56.12.516,Visual Search Experiment,,2025.1.1,None,2025-09-28 16h56.19.731088 +0530,
74,0,74,[np.float64(0.355)],[np.float64(-0.17833333333333334)],[1],[0],[0],[1.5709640419809148],['target'],74,0,74,0,132.69750500001828,,5,132.69083504201262,132.69750500001828,132.69750500001828,0.011420124996220693,134.26185787501163,[np.float64(0.355)],[np.float64(-0.17833333333333334)],[1],[0],[0],[1.5709640419809148],['target'],3,001,2025-09-28_16h56.12.516,Visual Search Experiment,,2025.1.1,None,2025-09-28 16h56.19.731088 +0530,
75,0,75,[np.float64(-0.38166666666666665)],[np.float64(0.475)],[1],[0],[0],[7.179280290991301],['target'],75,0,75,0,134.29167333300575,,10,134.28315699999803,134.29167333300575,134.29167333300575,0.021132291993126273,141.46248254200327,[np.float64(-0.38166666666666665)],[np.float64(0.475)],[1],[0],[0],[7.179280290991301],['target'],3,001,2025-09-28_16h56.12.516,Visual Search Experiment,,2025.1.1,None,2025-09-28 16h56.19.731088 +0530,
76,0,76,[np.float64(0.2633333333333333)],[np.float64(-0.06)],[1],[0],[0],[1.3561464579834137],['target'],76,0,76,0,141.4791081250005,,5,141.47271870801342,141.4791081250005,141.4791081250005,0.010069582989672199,142.82892879200517,[np.float64(0.2633333333333333)],[np.float64(-0.06)],[1],[0],[0],[1.3561464579834137],['target'],3,001,2025-09-28_16h56.12.516,Visual Search Experiment,,2025.1.1,None,2025-09-28 16h56.19.731088 +0530,
77,0,77,[np.float64(-0.16333333333333333)],[np.float64(-0.295)],[1],[0],[0],[1.8958435830136295],['target'],77,0,77,0,142.85795879201032,,10,142.84972841700073,142.85795879201032,142.85795879201032,0.02062458300497383,144.74561383301625,[np.float64(-0.16333333333333333)],[np.float64(-0.295)],[1],[0],[0],[1.8958435830136295],['target'],3,001,2025-09-28_16h56.12.516,Visual Search Experiment,,2025.1.1,None,2025-09-28 16h56.19.731088 +0530,
78,0,78,[np.float64(0.09666666666666666)],[np.float64(0.13)],[1],[0],[0],[1.3721853749884758],['target'],78,0,78,0,144.7625151250104,,5,144.75625437501003,144.7625151250104,144.7625151250104,0.010468624997884035,146.12848837501951,[np.float64(0.09666666666666666)],[np.float64(0.13)],[1],[0],[0],[1.3721853749884758],['target'],3,001,2025-09-28_16h56.12.516,Visual Search Experiment,,2025.1.1,None,2025-09-28 16h56.19.731088 +0530,
79,0,79,[np.float64(0.4066666666666667)],[np.float64(-0.07333333333333333)],[1],[0],[0],[1.3728837910166476],['target'],79,0,79,0,146.14602212500176,,5,146.13939075000235,146.14602212500176,146.14602212500176,0.010762499994598329,147.51232004200574,[np.float64(0.4066666666666667)],[np.float64(-0.07333333333333333)],[1],[0],[0],[1.3728837910166476],['target'],3,001,2025-09-28_16h56.12.516,Visual Search Experiment,,2025.1.1,None,2025-09-28 16h56.19.731088 +0530,
80,0,80,[np.float64(-0.3516666666666667)],[np.float64(-0.18166666666666667)],[1],[0],[0],[1.8063778330106288],['target'],80,0,80,0,147.53019358302117,,5,147.52363720801077,147.53019358302117,147.53019358302117,0.011183584021637216,149.3300715420046,[np.float64(-0.3516666666666667)],[np.float64(-0.18166666666666667)],[1],[0],[0],[1.8063778330106288],['target'],3,001,2025-09-28_16h56.12.516,Visual Search Experiment,,2025.1.1,None,2025-09-28 16h56.19.731088 +0530,
81,0,81,[np.float64(0.4716666666666667)],[np.float64(0.11833333333333333)],[1],[0],[0],[1.6115529999951832],['target'],81,0,81,0,149.3605370419973,,10,149.3515706670005,149.3605370419973,149.3605370419973,0.02133783299359493,150.96316479201778,[np.float64(0.4716666666666667)],[np.float64(0.11833333333333333)],[1],[0],[0],[1.6115529999951832],['target'],3,001,2025-09-28_16h56.12.516,Visual Search Experiment,,2025.1.1,None,2025-09-28 16h56.19.731088 +0530,
82,0,82,[np.float64(0.15666666666666668)],[np.float64(0.14666666666666667)],[1],[0],[0],[1.0641813750262372],['target'],82,0,82,0,150.9888019580103,,10,150.98153416701825,150.9888019580103,150.9888019580103,0.0182084170228336,152.0457523750083,[np.float64(0.15666666666666668)],[np.float64(0.14666666666666667)],[1],[0],[0],[1.0641813750262372],['target'],3,001,2025-09-28_16h56.12.516,Visual Search Experiment,,2025.1.1,None,2025-09-28 16h56.19.731088 +0530,
83,0,83,[np.float64(-0.38166666666666665)],[np.float64(-0.38)],[1],[0],[0],[1.6081275829928927],['target'],83,0,83,0,152.07106745801866,,10,152.06399679201422,152.07106745801866,152.07106745801866,0.018107207986759022,153.67214670800604,[np.float64(-0.38166666666666665)],[np.float64(-0.38)],[1],[0],[0],[1.6081275829928927],['target'],3,001,2025-09-28_16h56.12.516,Visual Search Experiment,,2025.1.1,None,2025-09-28 16h56.19.731088 +0530,
84,0,84,[np.float64(0.20333333333333334)],[np.float64(0.19333333333333333)],[1],[0],[0],[1.4375833340163808],['target'],84,0,84,0,153.69065420801053,,10,153.684582167014,153.69065420801053,153.69065420801053,0.012313999992329627,155.12219912500586,[np.float64(0.20333333333333334)],[np.float64(0.19333333333333333)],[1],[0],[0],[1.4375833340163808],['target'],3,001,2025-09-28_16h56.12.516,Visual Search Experiment,,2025.1.1,None,2025-09-28 16h56.19.731088 +0530,
85,0,85,[np.float64(0.28)],[np.float64(-0.375)],[1],[0],[0],[1.9036324160115328],['target'],85,0,85,0,155.14145570801338,,10,155.13513479201356,155.14145570801338,155.14145570801338,0.012802000012015924,157.0387966670096,[np.float64(0.28)],[np.float64(-0.375)],[1],[0],[0],[1.9036324160115328],['target'],3,001,2025-09-28_16h56.12.516,Visual Search Experiment,,2025.1.1,None,2025-09-28 16h56.19.731088 +0530,
86,0,86,[np.float64(-0.08166666666666667)],[np.float64(-0.36833333333333335)],[1],[0],[0],[2.094083167001372],['target'],86,0,86,0,157.04969945800258,,5,157.04540108301444,157.04969945800258,157.04969945800258,0.0064895419927779585,159.13951733300928,[np.float64(-0.08166666666666667)],[np.float64(-0.36833333333333335)],[1],[0],[0],[2.094083167001372],['target'],3,001,2025-09-28_16h56.12.516,Visual Search Experiment,,2025.1.1,None,2025-09-28 16h56.19.731088 +0530,
87,0,87,[np.float64(0.09666666666666666)],[np.float64(0.285)],[1],[0],[0],[1.3365999159868807],['target'],87,0,87,0,159.15822645800654,,10,159.15209787501954,159.15822645800654,159.15822645800654,0.012502625002525747,160.48872704201494,[np.float64(0.09666666666666666)],[np.float64(0.285)],[1],[0],[0],[1.3365999159868807],['target'],3,001,2025-09-28_16h56.12.516,Visual Search Experiment,,2025.1.1,None,2025-09-28 16h56.19.731088 +0530,
88,0,88,[np.float64(0.005)],[np.float64(-0.3983333333333333)],[1],[0],[0],[1.7038121669902466],['target'],88,0,88,0,160.5077300830162,,10,160.50159724999685,160.5077300830162,160.5077300830162,0.012775707989931107,162.20543679202092,[np.float64(0.005)],[np.float64(-0.3983333333333333)],[1],[0],[0],[1.7038121669902466],['target'],3,001,2025-09-28_16h56.12.516,Visual Search Experiment,,2025.1.1,None,2025-09-28 16h56.19.731088 +0530,
89,0,89,[np.float64(-0.34)],[np.float64(-0.33666666666666667)],[1],[0],[0],[1.6266415000136476],['target'],89,0,89,0,162.21670341701247,,5,162.21206441702088,162.21670341701247,162.21670341701247,0.006533624982694164,163.83873750001658,[np.float64(-0.34)],[np.float64(-0.33666666666666667)],[1],[0],[0],[1.6266415000136476],['target'],3,001,2025-09-28_16h56.12.516,Visual Search Experiment,,2025.1.1,None,2025-09-28 16h56.19.731088 +0530,
90,0,90,[np.float64(0.10833333333333334)],[np.float64(0.28833333333333333)],[1],[0],[0],[1.1044032080098987],['target'],90,0,90,0,163.8571058330126,,10,163.8510637920117,163.8571058330126,163.8571058330126,0.012244708021171391,164.95549416702124,[np.float64(0.10833333333333334)],[np.float64(0.28833333333333333)],[1],[0],[0],[1.1044032080098987],['target'],3,001,2025-09-28_16h56.12.516,Visual Search Experiment,,2025.1.1,None,2025-09-28 16h56.19.731088 +0530,
91,0,91,[np.float64(0.09666666666666666)],[np.float64(0.20333333333333334)],[1],[0],[0],[0.7767208750010468],['target'],91,0,91,0,164.96627629201976,,5,164.96198262501275,164.96627629201976,164.96627629201976,0.006372750009177253,165.73872979200678,[np.float64(0.09666666666666666)],[np.float64(0.20333333333333334)],[1],[0],[0],[0.7767208750010468],['target'],3,001,2025-09-28_16h56.12.516,Visual Search Experiment,,2025.1.1,None,2025-09-28 16h56.19.731088 +0530,
92,0,92,[np.float64(-0.04833333333333333)],[np.float64(-0.05)],[1],[0],[0],[1.4106089579872787],['target'],92,0,92,0,165.74954491702374,,5,165.7453895000217,165.74954491702374,165.74954491702374,0.006583792011952028,167.15602641701116,[np.float64(-0.04833333333333333)],[np.float64(-0.05)],[1],[0],[0],[1.4106089579872787],['target'],3,001,2025-09-28_16h56.12.516,Visual Search Experiment,,2025.1.1,None,2025-09-28 16h56.19.731088 +0530,
93,0,93,[np.float64(-0.018333333333333333)],[np.float64(-0.08833333333333333)],[1],[0],[0],[0.693220040993765],['target'],93,0,93,0,167.16674362501362,,5,167.16261495801155,167.16674362501362,167.16674362501362,0.006506458012154326,167.8558626669983,[np.float64(-0.018333333333333333)],[np.float64(-0.08833333333333333)],[1],[0],[0],[0.693220040993765],['target'],3,001,2025-09-28_16h56.12.516,Visual Search Experiment,,2025.1.1,None,2025-09-28 16h56.19.731088 +0530,
94,0,94,[np.float64(-0.47833333333333333)],[np.float64(-0.18333333333333332)],[1],[0],[0],[1.7428572089993395],['target'],94,0,94,0,167.86686870802077,,5,167.86245904202224,167.86686870802077,167.86686870802077,0.0065142080129589885,169.60534525002004,[np.float64(-0.47833333333333333)],[np.float64(-0.18333333333333332)],[1],[0],[0],[1.7428572089993395],['target'],3,001,2025-09-28_16h56.12.516,Visual Search Experiment,,2025.1.1,None,2025-09-28 16h56.19.731088 +0530,
95,0,95,[np.float64(0.235)],[np.float64(-0.305)],[1],[0],[0],[2.194029042002512],['target'],95,0,95,0,169.6162605000136,,5,169.61197666701628,169.6162605000136,169.6162605000136,0.006549874990014359,171.80603695800528,[np.float64(0.235)],[np.float64(-0.305)],[1],[0],[0],[2.194029042002512],['target'],3,001,2025-09-28_16h56.12.516,Visual Search Experiment,,2025.1.1,None,2025-09-28 16h56.19.731088 +0530,
96,0,96,[np.float64(-0.4166666666666667)],[np.float64(0.21833333333333332)],[1],[0],[0],[2.1367367499915417],['target'],96,0,96,0,171.82498233299702,,10,171.81856308301212,171.82498233299702,171.82498233299702,0.012442625011317432,173.95532950002234,[np.float64(-0.4166666666666667)],[np.float64(0.21833333333333332)],[1],[0],[0],[2.1367367499915417],['target'],3,001,2025-09-28_16h56.12.516,Visual Search Experiment,,2025.1.1,None,2025-09-28 16h56.19.731088 +0530,
97,0,97,[np.float64(0.3416666666666667)],[np.float64(-0.155)],[1],[0],[0],[2.0440135420067236],['target'],97,0,97,0,173.96644075002405,,5,173.96194316699984,173.96644075002405,173.96644075002405,0.006517041998449713,176.0059882500209,[np.float64(0.3416666666666667)],[np.float64(-0.155)],[1],[0],[0],[2.0440135420067236],['target'],3,001,2025-09-28_16h56.12.516,Visual Search Experiment,,2025.1.1,None,2025-09-28 16h56.19.731088 +0530,
98,0,98,[np.float64(0.06333333333333334)],[np.float64(0.22166666666666668)],[1],[0],[0],[1.4539247080101632],['target'],98,0,98,0,176.0245247920102,,10,176.01818404201185,176.0245247920102,176.0245247920102,0.01210887500201352,177.4721387080208,[np.float64(0.06333333333333334)],[np.float64(0.22166666666666668)],[1],[0],[0],[1.4539247080101632],['target'],3,001,2025-09-28_16h56.12.516,Visual Search Experiment,,2025.1.1,None,2025-09-28 16h56.19.731088 +0530,
99,0,99,[np.float64(0.115)],[np.float64(-0.4866666666666667)],[1],[0],[0],[1.8207890830235556],['target'],99,0,99,0,177.49077425000723,,10,177.48457995802164,177.49077425000723,177.49077425000723,0.01233541700639762,179.30539816702367,[np.float64(0.115)],[np.float64(-0.4866666666666667)],[1],[0],[0],[1.8207890830235556],['target'],3,001,2025-09-28_16h56.12.516,Visual Search Experiment,,2025.1.1,None,2025-09-28 16h56.19.731088 +0530,
100,0,100,[np.float64(0.49333333333333335)],[np.float64(0.44166666666666665)],[1],[0],[0],[1.2938428749912418],['target'],100,0,100,0,179.31664075001027,,5,179.3120620000118,179.31664075001027,179.31664075001027,0.006566124997334555,180.60593200000585,[np.float64(0.49333333333333335)],[np.float64(0.44166666666666665)],[1],[0],[0],[1.2938428749912418],['target'],3,001,2025-09-28_16h56.12.516,Visual Search Experiment,,2025.1.1,None,2025-09-28 16h56.19.731088 +0530,
101,0,101,[np.float64(-0.33666666666666667)],[np.float64(-0.4666666666666667)],[1],[0],[0],[1.8866710840084124],['target'],101,0,101,0,180.62513608302106,,10,180.6186119580234,180.62513608302106,180.62513608302106,0.01260254200315103,182.5053130419983,[np.float64(-0.33666666666666667)],[np.float64(-0.4666666666666667)],[1],[0],[0],[1.8866710840084124],['target'],3,001,2025-09-28_16h56.12.516,Visual Search Experiment,,2025.1.1,None,2025-09-28 16h56.19.731088 +0530,
102,0,102,[np.float64(-0.3883333333333333)],[np.float64(-0.24333333333333335)],[1],[0],[0],[1.3605863749980927],['target'],102,0,102,0,182.51645337502123,,5,182.51209800000652,182.51645337502123,182.51645337502123,0.006687415996566415,183.8727111670014,[np.float64(-0.3883333333333333)],[np.float64(-0.24333333333333335)],[1],[0],[0],[1.3605863749980927],['target'],3,001,2025-09-28_16h56.12.516,Visual Search Experiment,,2025.1.1,None,2025-09-28 16h56.19.731088 +0530,
103,0,103,[np.float64(-0.43666666666666665)],[np.float64(-0.4816666666666667)],[1],[0],[0],[1.9929731659940444],['target'],103,0,103,0,183.8836768750043,,5,183.87948658299865,183.8836768750043,183.8836768750043,0.006705082982080057,185.87248849999742,[np.float64(-0.43666666666666665)],[np.float64(-0.4816666666666667)],[1],[0],[0],[1.9929731659940444],['target'],3,001,2025-09-28_16h56.12.516,Visual Search Experiment,,2025.1.1,None,2025-09-28 16h56.19.731088 +0530,
104,0,104,[np.float64(-0.36666666666666664)],[np.float64(0.12)],[1],[0],[0],[1.8100276659824885],['target'],104,0,104,0,185.8833709169994,,5,185.8791227080219,185.8833709169994,185.8833709169994,0.006554916995810345,187.68917237501591,[np.float64(-0.36666666666666664)],[np.float64(0.12)],[1],[0],[0],[1.8100276659824885],['target'],3,001,2025-09-28_16h56.12.516,Visual Search Experiment,,2025.1.1,None,2025-09-28 16h56.19.731088 +0530,
105,0,105,[np.float64(-0.0033333333333333335)],[np.float64(0.3516666666666667)],[1],[0],[0],[1.0933979589899536],['target'],105,0,105,0,187.70007116699708,,5,187.69580787501764,187.70007116699708,187.70007116699708,0.006558124994626269,188.78923345799558,[np.float64(-0.0033333333333333335)],[np.float64(0.3516666666666667)],[1],[0],[0],[1.0933979589899536],['target'],3,001,2025-09-28_16h56.12.516,Visual Search Experiment,,2025.1.1,None,2025-09-28 16h56.19.731088 +0530,
106,0,106,[np.float64(0.065)],[np.float64(0.3333333333333333)],[1],[0],[0],[1.0265632499940693],['target'],106,0,106,0,188.80050833302084,,5,188.79599608300487,188.80050833302084,188.80050833302084,0.006679832993540913,189.8225911250047,[np.float64(0.065)],[np.float64(0.3333333333333333)],[1],[0],[0],[1.0265632499940693],['target'],3,001,2025-09-28_16h56.12.516,Visual Search Experiment,,2025.1.1,None,2025-09-28 16h56.19.731088 +0530,
107,0,107,[np.float64(0.15666666666666668)],[np.float64(0.34833333333333333)],[1],[0],[0],[1.3536181249946821],['target'],107,0,107,0,189.84111300000222,,10,189.83499025000492,189.84111300000222,189.84111300000222,0.012325541989412159,191.18863525000052,[np.float64(0.15666666666666668)],[np.float64(0.34833333333333333)],[1],[0],[0],[1.3536181249946821],['target'],3,001,2025-09-28_16h56.12.516,Visual Search Experiment,,2025.1.1,None,2025-09-28 16h56.19.731088 +0530,
108,0,108,[np.float64(0.49)],[np.float64(0.045)],[1],[0],[0],[4.11065512499772],['target'],108,0,108,0,191.20795837501646,,10,191.20177579199662,191.20795837501646,191.20795837501646,0.013051624991931021,195.31248429202242,[np.float64(0.49)],[np.float64(0.045)],[1],[0],[0],[4.11065512499772],['target'],3,001,2025-09-28_16h56.12.516,Visual Search Experiment,,2025.1.1,None,2025-09-28 16h56.19.731088 +0530,
109,0,109,[np.float64(-0.34)],[np.float64(-0.33166666666666667)],[1],[0],[0],[1.656312250008341],['target'],109,0,109,0,195.32917670800816,,5,195.32282762500108,195.32917670800816,195.32917670800816,0.010166458989260718,196.9792048750096,[np.float64(-0.34)],[np.float64(-0.33166666666666667)],[1],[0],[0],[1.656312250008341],['target'],3,001,2025-09-28_16h56.12.516,Visual Search Experiment,,2025.1.1,None,2025-09-28 16h56.19.731088 +0530,
110,0,110,[np.float64(-0.12666666666666668)],[np.float64(-0.205)],[1],[0],[0],[1.2956515830010176],['target'],110,0,110,0,197.00834900001064,,10,196.99983333301498,197.00834900001064,197.00834900001064,0.020442582987016067,198.2955274580163,[np.float64(-0.12666666666666668)],[np.float64(-0.205)],[1],[0],[0],[1.2956515830010176],['target'],3,001,2025-09-28_16h56.12.516,Visual Search Experiment,,2025.1.1,None,2025-09-28 16h56.19.731088 +0530,
111,0,111,[np.float64(-0.025)],[np.float64(-0.10333333333333333)],[1],[0],[0],[0.938413791009225],['target'],111,0,111,0,198.31266287501785,,5,198.3064645830018,198.31266287501785,198.31266287501785,0.010768209001980722,199.24492408300284,[np.float64(-0.025)],[np.float64(-0.10333333333333333)],[1],[0],[0],[0.938413791009225],['target'],3,001,2025-09-28_16h56.12.516,Visual Search Experiment,,2025.1.1,None,2025-09-28 16h56.19.731088 +0530,
112,0,112,[np.float64(-0.2816666666666667)],[np.float64(-0.14166666666666666)],[1],[0],[0],[1.3886569589958526],['target'],112,0,112,0,199.26312812502147,,5,199.25624475002405,199.26312812502147,199.26312812502147,0.011188125004991889,200.64495741701103,[np.float64(-0.2816666666666667)],[np.float64(-0.14166666666666666)],[1],[0],[0],[1.3886569589958526],['target'],3,001,2025-09-28_16h56.12.516,Visual Search Experiment,,2025.1.1,None,2025-09-28 16h56.19.731088 +0530,
113,0,113,[np.float64(-0.4066666666666667)],[np.float64(0.45166666666666666)],[1],[0],[0],[1.8053079170058481],['target'],113,0,113,0,200.66241054201964,,5,200.65606604202185,200.66241054201964,200.66241054201964,0.010977666999679059,202.46142029200564,[np.float64(-0.4066666666666667)],[np.float64(0.45166666666666666)],[1],[0],[0],[1.8053079170058481],['target'],3,001,2025-09-28_16h56.12.516,Visual Search Experiment,,2025.1.1,None,2025-09-28 16h56.19.731088 +0530,
114,0,114,[np.float64(-0.0016666666666666668)],[np.float64(-0.25166666666666665)],[1],[0],[0],[1.5897162919864058],['target'],114,0,114,0,202.47966879201704,,5,202.47303220801405,202.47966879201704,202.47966879201704,0.011471667006844655,204.06280637500458,[np.float64(-0.0016666666666666668)],[np.float64(-0.25166666666666665)],[1],[0],[0],[1.5897162919864058],['target'],3,001,2025-09-28_16h56.12.516,Visual Search Experiment,,2025.1.1,None,2025-09-28 16h56.19.731088 +0530,
115,0,115,[np.float64(-0.115)],[np.float64(0.28)],[1],[0],[0],[1.4622878340014722],['target'],115,0,115,0,204.09178654200514,,10,204.08351075000246,204.09178654200514,204.09178654200514,0.020546042011119425,205.54583908300265,[np.float64(-0.115)],[np.float64(0.28)],[1],[0],[0],[1.4622878340014722],['target'],3,001,2025-09-28_16h56.12.516,Visual Search Experiment,,2025.1.1,None,2025-09-28 16h56.19.731088 +0530,
116,0,116,[np.float64(0.07666666666666666)],[np.float64(0.2866666666666667)],[1],[0],[0],[1.072811666992493],['target'],116,0,116,0,205.56260879201,,5,205.55631662500673,205.56260879201,205.56260879201,0.010316790983779356,206.6291884170205,[np.float64(0.07666666666666666)],[np.float64(0.2866666666666667)],[1],[0],[0],[1.072811666992493],['target'],3,001,2025-09-28_16h56.12.516,Visual Search Experiment,,2025.1.1,None,2025-09-28 16h56.19.731088 +0530,
117,0,117,[np.float64(0.045)],[np.float64(0.265)],[1],[0],[0],[0.7394300419837236],['target'],117,0,117,0,206.64716479199706,,5,206.64048841700424,206.64716479199706,206.64716479199706,0.011153250001370907,207.37997391700628,[np.float64(0.045)],[np.float64(0.265)],[1],[0],[0],[0.7394300419837236],['target'],3,001,2025-09-28_16h56.12.516,Visual Search Experiment,,2025.1.1,None,2025-09-28 16h56.19.731088 +0530,
118,0,118,[np.float64(-0.39)],[np.float64(-0.12166666666666667)],[1],[0],[0],[2.3692079999891575],['target'],118,0,118,0,207.40026908300933,,5,207.39301329202135,207.40026908300933,207.40026908300933,0.012885416013887152,209.76227900001686,[np.float64(-0.39)],[np.float64(-0.12166666666666667)],[1],[0],[0],[2.3692079999891575],['target'],3,001,2025-09-28_16h56.12.516,Visual Search Experiment,,2025.1.1,None,2025-09-28 16h56.19.731088 +0530,
119,0,119,[np.float64(-0.195)],[np.float64(0.4166666666666667)],[1],[0],[0],[1.504056584002683],['target'],119,0,119,0,209.78130891700857,,5,209.77449400001206,209.78130891700857,209.78130891700857,0.012048834003508091,211.27859850000823,[np.float64(-0.195)],[np.float64(0.4166666666666667)],[1],[0],[0],[1.504056584002683],['target'],3,001,2025-09-28_16h56.12.516,Visual Search Experiment,,2025.1.1,None,2025-09-28 16h56.19.731088 +0530,
120,0,120,[np.float64(0.34)],[np.float64(-0.2783333333333333)],[1],[0],[0],[2.7641021659947],['target'],120,0,120,0,211.3059035000042,,10,211.29776220800704,211.3059035000042,211.3059035000042,0.019023708009626716,214.0618968750059,[np.float64(0.34)],[np.float64(-0.2783333333333333)],[1],[0],[0],[2.7641021659947],['target'],3,001,2025-09-28_16h56.12.516,Visual Search Experiment,,2025.1.1,None,2025-09-28 16h56.19.731088 +0530,
121,0,121,[np.float64(-0.14166666666666666)],[np.float64(0.12)],[1],[0],[0],[1.4825567080115434],['target'],121,0,121,0,214.08763508300763,,10,214.08011541701853,214.08763508300763,214.08763508300763,0.018082666996633634,215.5627252080012,[np.float64(-0.14166666666666666)],[np.float64(0.12)],[1],[0],[0],[1.4825567080115434],['target'],3,001,2025-09-28_16h56.12.516,Visual Search Experiment,,2025.1.1,None,2025-09-28 16h56.19.731088 +0530,
122,0,122,[np.float64(0.145)],[np.float64(-0.13333333333333333)],[1],[0],[0],[1.306156667007599],['target'],122,0,122,0,215.57886812501238,,5,215.57276520802407,215.57886812501238,215.57886812501238,0.009880041994620115,216.87898333300836,[np.float64(0.145)],[np.float64(-0.13333333333333333)],[1],[0],[0],[1.306156667007599],['target'],3,001,2025-09-28_16h56.12.516,Visual Search Experiment,,2025.1.1,None,2025-09-28 16h56.19.731088 +0530,
123,0,123,[np.float64(0.08833333333333333)],[np.float64(-0.46)],[1],[0],[0],[1.2221344159916043],['target'],123,0,123,0,216.89737054202124,,5,216.89061545801815,216.89737054202124,216.89737054202124,0.011474582977825776,218.1128091670107,[np.float64(0.08833333333333333)],[np.float64(-0.46)],[1],[0],[0],[1.2221344159916043],['target'],3,001,2025-09-28_16h56.12.516,Visual Search Experiment,,2025.1.1,None,2025-09-28 16h56.19.731088 +0530,
124,0,124,[np.float64(-0.33666666666666667)],[np.float64(-0.37666666666666665)],[1],[0],[0],[1.7868722089915536],['target'],124,0,124,0,218.1330042500049,,5,218.12607587501407,218.1330042500049,218.1330042500049,0.013102999975671992,219.91301420799573,[np.float64(-0.33666666666666667)],[np.float64(-0.37666666666666665)],[1],[0],[0],[1.7868722089915536],['target'],3,001,2025-09-28_16h56.12.516,Visual Search Experiment,,2025.1.1,None,2025-09-28 16h56.19.731088 +0530,
125,0,125,[np.float64(-0.225)],[np.float64(-0.04833333333333333)],[1],[0],[0],[1.5202929170045536],['target'],125,0,125,0,219.93206875000033,,5,219.92523429202265,219.93206875000033,219.93206875000033,0.01205895800376311,221.4455894580169,[np.float64(-0.225)],[np.float64(-0.04833333333333333)],[1],[0],[0],[1.5202929170045536],['target'],3,001,2025-09-28_16h56.12.516,Visual Search Experiment,,2025.1.1,None,2025-09-28 16h56.19.731088 +0530,
126,0,126,[np.float64(0.155)],[np.float64(0.325)],[1],[0],[0],[2.337193582992768],['target'],126,0,126,0,221.46461600001203,,5,221.45783595801913,221.46461600001203,221.46461600001203,0.012073916994268075,223.7950890000211,[np.float64(0.155)],[np.float64(0.325)],[1],[0],[0],[2.337193582992768],['target'],3,001,2025-09-28_16h56.12.516,Visual Search Experiment,,2025.1.1,None,2025-09-28 16h56.19.731088 +0530,
127,0,127,[np.float64(0.006666666666666667)],[np.float64(-0.13333333333333333)],[1],[0],[0],[1.6382294170034584],['target'],127,0,127,0,223.81388808300835,,5,223.8069741250074,223.81388808300835,223.81388808300835,0.011710374994436279,225.44524895801442,[np.float64(0.006666666666666667)],[np.float64(-0.13333333333333333)],[1],[0],[0],[1.6382294170034584],['target'],3,001,2025-09-28_16h56.12.516,Visual Search Experiment,,2025.1.1,None,2025-09-28 16h56.19.731088 +0530,
128,0,128,[np.float64(0.04)],[np.float64(0.485)],[1],[0],[0],[1.8390223340247758],['target'],128,0,128,0,225.46419025000068,,5,225.45717141701607,225.46419025000068,225.46419025000068,0.011772874975576997,227.29623879201245,[np.float64(0.04)],[np.float64(0.485)],[1],[0],[0],[1.8390223340247758],['target'],3,001,2025-09-28_16h56.12.516,Visual Search Experiment,,2025.1.1,None,2025-09-28 16h56.19.731088 +0530,
129,0,129,[np.float64(-0.2733333333333333)],[np.float64(-0.24666666666666667)],[1],[0],[0],[1.7294453750073444],['target'],129,0,129,0,227.32431975001236,,10,227.31609150001896,227.32431975001236,227.32431975001236,0.019719624979188666,229.04558533302043,[np.float64(-0.2733333333333333)],[np.float64(-0.24666666666666667)],[1],[0],[0],[1.7294453750073444],['target'],3,001,2025-09-28_16h56.12.516,Visual Search Experiment,,2025.1.1,None,2025-09-28 16h56.19.731088 +0530,
130,0,130,[np.float64(-0.09833333333333333)],[np.float64(0.05333333333333334)],[1],[0],[0],[1.5227099999901839],['target'],130,0,130,0,229.06225566699868,,5,229.0558570419962,229.06225566699868,229.06225566699868,0.010091167001519352,230.5786425830156,[np.float64(-0.09833333333333333)],[np.float64(0.05333333333333334)],[1],[0],[0],[1.5227099999901839],['target'],3,001,2025-09-28_16h56.12.516,Visual Search Experiment,,2025.1.1,None,2025-09-28 16h56.19.731088 +0530,
131,0,131,[np.float64(-0.26666666666666666)],[np.float64(-0.225)],[1],[0],[0],[1.7289147499832325],['target'],131,0,131,0,230.60744087499916,,10,230.59875362500316,230.60744087499916,230.60744087499916,0.019931916991481557,232.32770504200016,[np.float64(-0.26666666666666666)],[np.float64(-0.225)],[1],[0],[0],[1.7289147499832325],['target'],3,001,2025-09-28_16h56.12.516,Visual Search Experiment,,2025.1.1,None,2025-09-28 16h56.19.731088 +0530,
132,0,132,[np.float64(-0.43166666666666664)],[np.float64(0.041666666666666664)],[1],[0],[0],[2.2408433329837862],['target'],132,0,132,0,232.34316470799968,,5,232.33752066700254,232.34316470799968,232.34316470799968,0.009674166998593137,234.57842687499942,[np.float64(-0.43166666666666664)],[np.float64(0.041666666666666664)],[1],[0],[0],[2.2408433329837862],['target'],3,001,2025-09-28_16h56.12.516,Visual Search Experiment,,2025.1.1,None,2025-09-28 16h56.19.731088 +0530,
133,0,133,[np.float64(0.03833333333333333)],[np.float64(-0.12333333333333334)],[1],[0],[0],[1.8959722089930438],['target'],133,0,133,0,234.60876345800352,,10,234.60000295800273,234.60876345800352,234.60876345800352,0.021394083014456555,236.4960161250201,[np.float64(0.03833333333333333)],[np.float64(-0.12333333333333334)],[1],[0],[0],[1.8959722089930438],['target'],3,001,2025-09-28_16h56.12.516,Visual Search Experiment,,2025.1.1,None,2025-09-28 16h56.19.731088 +0530,
134,0,134,[np.float64(0.415)],[np.float64(-0.09166666666666666)],[1],[0],[0],[1.8477631249988917],['target'],134,0,134,0,236.5217228330148,,10,236.51442700001644,236.5217228330148,236.5217228330148,0.018248792010126635,238.36223291701754,[np.float64(0.415)],[np.float64(-0.09166666666666666)],[1],[0],[0],[1.8477631249988917],['target'],3,001,2025-09-28_16h56.12.516,Visual Search Experiment,,2025.1.1,None,2025-09-28 16h56.19.731088 +0530,
135,0,135,[np.float64(0.045)],[np.float64(0.26666666666666666)],[1],[0],[0],[1.330340749991592],['target'],135,0,135,0,238.3888513330021,,10,238.3811805419973,238.3888513330021,238.3888513330021,0.0187849169888068,239.7115575830103,[np.float64(0.045)],[np.float64(0.26666666666666666)],[1],[0],[0],[1.330340749991592],['target'],3,001,2025-09-28_16h56.12.516,Visual Search Experiment,,2025.1.1,None,2025-09-28 16h56.19.731088 +0530,
136,0,136,[np.float64(-0.06333333333333334)],[np.float64(-0.22833333333333333)],[1],[0],[0],[1.1401219579856843],['target'],136,0,136,0,239.7278914170165,,5,239.7214685830113,239.7278914170165,239.7278914170165,0.009763582987943664,240.86166350002168,[np.float64(-0.06333333333333334)],[np.float64(-0.22833333333333333)],[1],[0],[0],[1.1401219579856843],['target'],3,001,2025-09-28_16h56.12.516,Visual Search Experiment,,2025.1.1,None,2025-09-28 16h56.19.731088 +0530,
137,0,137,[np.float64(0.26166666666666666)],[np.float64(0.42333333333333334)],[1],[0],[0],[1.522305583988782],['target'],137,0,137,0,240.88136708299862,,5,240.87443495800835,240.88136708299862,240.88136708299862,0.01258979202248156,242.39680341701023,[np.float64(0.26166666666666666)],[np.float64(0.42333333333333334)],[1],[0],[0],[1.522305583988782],['target'],3,001,2025-09-28_16h56.12.516,Visual Search Experiment,,2025.1.1,None,2025-09-28 16h56.19.731088 +0530,
138,0,138,[np.float64(-0.18333333333333332)],[np.float64(0.47)],[1],[0],[0],[1.6442270830157213],['target'],138,0,138,0,242.42644958299934,,10,242.41811158301425,242.42644958299934,242.42644958299934,0.02113516701501794,244.06238250000752,[np.float64(-0.18333333333333332)],[np.float64(0.47)],[1],[0],[0],[1.6442270830157213],['target'],3,001,2025-09-28_16h56.12.516,Visual Search Experiment,,2025.1.1,None,2025-09-28 16h56.19.731088 +0530,
139,0,139,[np.float64(-0.12666666666666668)],[np.float64(-0.02666666666666667)],[1],[0],[0],[1.362917041988112],['target'],139,0,139,0,244.09008791702217,,10,244.08241033300874,244.09008791702217,244.09008791702217,0.019863125024130568,245.44536262500333,[np.float64(-0.12666666666666668)],[np.float64(-0.02666666666666667)],[1],[0],[0],[1.362917041988112],['target'],3,001,2025-09-28_16h56.12.516,Visual Search Experiment,,2025.1.1,None,2025-09-28 16h56.19.731088 +0530,
140,0,140,[np.float64(-0.19333333333333333)],[np.float64(-0.23166666666666666)],[1],[0],[0],[1.0666533749899827],['target'],140,0,140,0,245.47095962500316,,10,245.46312458300963,245.47095962500316,245.47095962500316,0.017620667000301182,246.52982083300594,[np.float64(-0.19333333333333333)],[np.float64(-0.23166666666666666)],[1],[0],[0],[1.0666533749899827],['target'],3,001,2025-09-28_16h56.12.516,Visual Search Experiment,,2025.1.1,None,2025-09-28 16h56.19.731088 +0530,
141,0,141,[np.float64(-0.39666666666666667)],[np.float64(0.365)],[1],[0],[0],[1.230560374999186],['target'],141,0,141,0,246.55681533302413,,10,246.54914866702165,246.55681533302413,246.55681533302413,0.019167958991602063,247.77975316700758,[np.float64(-0.39666666666666667)],[np.float64(0.365)],[1],[0],[0],[1.230560374999186],['target'],3,001,2025-09-28_16h56.12.516,Visual Search Experiment,,2025.1.1,None,2025-09-28 16h56.19.731088 +0530,
142,0,142,[np.float64(0.265)],[np.float64(0.26166666666666666)],[1],[0],[0],[3.462591124989558],['target'],142,0,142,0,247.8077223750006,,10,247.79938020801637,247.8077223750006,247.8077223750006,0.019465000019408762,251.26201920802123,[np.float64(0.265)],[np.float64(0.26166666666666666)],[1],[0],[0],[3.462591124989558],['target'],3,001,2025-09-28_16h56.12.516,Visual Search Experiment,,2025.1.1,None,2025-09-28 16h56.19.731088 +0530,
143,0,143,[np.float64(0.49)],[np.float64(0.18666666666666668)],[1],[0],[0],[1.1985748329898342],['target'],143,0,143,0,251.2873817080108,,10,251.27983820802183,251.2873817080108,251.2873817080108,0.017639833997236565,252.47846962499898,[np.float64(0.49)],[np.float64(0.18666666666666668)],[1],[0],[0],[1.1985748329898342],['target'],3,001,2025-09-28_16h56.12.516,Visual Search Experiment,,2025.1.1,None,2025-09-28 16h56.19.731088 +0530,
144,0,144,[np.float64(-0.33166666666666667)],[np.float64(0.24333333333333335)],[1],[0],[0],[1.7073051249899436],['target'],144,0,144,0,252.4965104580042,,5,252.4901739580091,252.4965104580042,252.4965104580042,0.011541707994183525,254.19753950001905,[np.float64(-0.33166666666666667)],[np.float64(0.24333333333333335)],[1],[0],[0],[1.7073051249899436],['target'],3,001,2025-09-28_16h56.12.516,Visual Search Experiment,,2025.1.1,None,2025-09-28 16h56.19.731088 +0530,
145,0,145,[np.float64(-0.025)],[np.float64(-0.22)],[1],[0],[0],[1.8848317500087433],['target'],145,0,145,0,254.21742887501023,,5,254.21018404202187,254.21742887501023,254.21742887501023,0.012478082993766293,256.09507879201556,[np.float64(-0.025)],[np.float64(-0.22)],[1],[0],[0],[1.8848317500087433],['target'],3,001,2025-09-28_16h56.12.516,Visual Search Experiment,,2025.1.1,None,2025-09-28 16h56.19.731088 +0530,
146,0,146,[np.float64(-0.38333333333333336)],[np.float64(0.19666666666666666)],[1],[0],[0],[1.7051382079953328],['target'],146,0,146,0,256.1135194170056,,5,256.10669087502174,256.1135194170056,256.1135194170056,0.011449500016169623,257.81188783299876,[np.float64(-0.38333333333333336)],[np.float64(0.19666666666666666)],[1],[0],[0],[1.7051382079953328],['target'],3,001,2025-09-28_16h56.12.516,Visual Search Experiment,,2025.1.1,None,2025-09-28 16h56.19.731088 +0530,
147,0,147,[np.float64(0.49333333333333335)],[np.float64(-0.005)],[1],[0],[0],[2.363033041008748],['target'],147,0,147,0,257.8402950830059,,10,257.8321432500088,257.8402950830059,257.8402950830059,0.020082542003365234,260.19522187500843,[np.float64(0.49333333333333335)],[np.float64(-0.005)],[1],[0],[0],[2.363033041008748],['target'],3,001,2025-09-28_16h56.12.516,Visual Search Experiment,,2025.1.1,None,2025-09-28 16h56.19.731088 +0530,
148,0,148,[np.float64(0.0)],[np.float64(-0.2816666666666667)],[1],[0],[0],[1.605149542010622],['target'],148,0,148,0,260.21264987500035,,5,260.206241708016,260.21264987500035,260.21264987500035,0.010845999990124255,261.81145245800144,[np.float64(0.0)],[np.float64(-0.2816666666666667)],[1],[0],[0],[1.605149542010622],['target'],3,001,2025-09-28_16h56.12.516,Visual Search Experiment,,2025.1.1,None,2025-09-28 16h56.19.731088 +0530,
149,0,149,[np.float64(-0.045)],[np.float64(-0.13166666666666665)],[1],[0],[0],[0.9056685410032514],['target'],149,0,149,0,261.8291953750013,,5,261.822534292005,261.8291953750013,261.8291953750013,0.010942665976472199,262.72827125000185,[np.float64(-0.045)],[np.float64(-0.13166666666666665)],[1],[0],[0],[0.9056685410032514],['target'],3,001,2025-09-28_16h56.12.516,Visual Search Experiment,,2025.1.1,None,2025-09-28 16h56.19.731088 +0530,
150,0,150,[np.float64(0.17666666666666667)],[np.float64(0.335)],[1],[0],[0],[1.1033212500042282],['target'],150,0,150,0,262.74855200000457,,5,262.74177550000604,262.74855200000457,262.74855200000457,0.013324208004632965,263.8451457080082,[np.float64(0.17666666666666667)],[np.float64(0.335)],[1],[0],[0],[1.1033212500042282],['target'],3,001,2025-09-28_16h56.12.516,Visual Search Experiment,,2025.1.1,None,2025-09-28 16h56.19.731088 +0530,
151,0,151,[np.float64(0.043333333333333335)],[np.float64(-0.2733333333333333)],[1],[0],[0],[1.4045845410146285],['target'],151,0,151,0,263.8630633749999,,5,263.8566416670219,263.8630633749999,263.8630633749999,0.011362082994310185,265.2612727500091,[np.float64(0.043333333333333335)],[np.float64(-0.2733333333333333)],[1],[0],[0],[1.4045845410146285],['target'],3,001,2025-09-28_16h56.12.516,Visual Search Experiment,,2025.1.1,None,2025-09-28 16h56.19.731088 +0530,
152,0,152,[np.float64(0.3233333333333333)],[np.float64(0.08666666666666667)],[1],[0],[0],[1.6318308329791762],['target'],152,0,152,0,265.2888634580013,,10,265.2808543750143,265.2888634580013,265.2888634580013,0.019439666997641325,266.9127272500191,[np.float64(0.3233333333333333)],[np.float64(0.08666666666666667)],[1],[0],[0],[1.6318308329791762],['target'],3,001,2025-09-28_16h56.12.516,Visual Search Experiment,,2025.1.1,None,2025-09-28 16h56.19.731088 +0530,
153,0,153,[np.float64(-0.065)],[np.float64(0.13166666666666665)],[1],[0],[0],[1.104534916987177],['target'],153,0,153,0,266.9302783330204,,5,266.9239243750053,266.9302783330204,266.9302783330204,0.011033834016416222,268.02852020799764,[np.float64(-0.065)],[np.float64(0.13166666666666665)],[1],[0],[0],[1.104534916987177],['target'],3,001,2025-09-28_16h56.12.516,Visual Search Experiment,,2025.1.1,None,2025-09-28 16h56.19.731088 +0530,
154,0,154,[np.float64(-0.19833333333333333)],[np.float64(0.12666666666666668)],[1],[0],[0],[0.996525541995652],['target'],154,0,154,0,268.05651375002344,,10,268.0483907080197,268.05651375002344,268.05651375002344,0.01969366701086983,269.0449622500164,[np.float64(-0.19833333333333333)],[np.float64(0.12666666666666668)],[1],[0],[0],[0.996525541995652],['target'],3,001,2025-09-28_16h56.12.516,Visual Search Experiment,,2025.1.1,None,2025-09-28 16h56.19.731088 +0530,
155,0,155,[np.float64(0.07166666666666667)],[np.float64(0.4266666666666667)],[1],[0],[0],[1.2064280830090865],['target'],155,0,155,0,269.06186116702156,,5,269.0555434580019,269.06186116702156,269.06186116702156,0.010417374985991046,270.2620375830156,[np.float64(0.07166666666666667)],[np.float64(0.4266666666666667)],[1],[0],[0],[1.2064280830090865],['target'],3,001,2025-09-28_16h56.12.516,Visual Search Experiment,,2025.1.1,None,2025-09-28 16h56.19.731088 +0530,
156,0,156,[np.float64(0.19333333333333333)],[np.float64(-0.41333333333333333)],[1],[0],[0],[1.5045706669916399],['target'],156,0,156,0,270.2802477920195,,5,270.2737250420032,270.2802477920195,270.2802477920195,0.011514000012539327,271.7783469580172,[np.float64(0.19333333333333333)],[np.float64(-0.41333333333333333)],[1],[0],[0],[1.5045706669916399],['target'],3,001,2025-09-28_16h56.12.516,Visual Search Experiment,,2025.1.1,None,2025-09-28 16h56.19.731088 +0530,
157,0,157,[np.float64(-0.21833333333333332)],[np.float64(0.27166666666666667)],[1],[0],[0],[1.031263124983525],['target'],157,0,157,0,271.8055701670237,,10,271.7977347499982,271.8055701670237,271.8055701670237,0.019253707985626534,272.8290393750067,[np.float64(-0.21833333333333332)],[np.float64(0.27166666666666667)],[1],[0],[0],[1.031263124983525],['target'],3,001,2025-09-28_16h56.12.516,Visual Search Experiment,,2025.1.1,None,2025-09-28 16h56.19.731088 +0530,
158,0,158,[np.float64(-0.3883333333333333)],[np.float64(-0.31333333333333335)],[1],[0],[0],[1.497173500014469],['target'],158,0,158,0,272.8559190000233,,10,272.84845391701674,272.8559190000233,272.8559190000233,0.019244625000283122,274.3456612500013,[np.float64(-0.3883333333333333)],[np.float64(-0.31333333333333335)],[1],[0],[0],[1.497173500014469],['target'],3,001,2025-09-28_16h56.12.516,Visual Search Experiment,,2025.1.1,None,2025-09-28 16h56.19.731088 +0530,
159,0,159,[np.float64(0.115)],[np.float64(-0.145)],[1],[0],[0],[1.1994276670156978],['target'],159,0,159,0,274.3703687080124,,10,274.3631028330128,274.3703687080124,274.3703687080124,0.01730466599110514,275.56257483302034,[np.float64(0.115)],[np.float64(-0.145)],[1],[0],[0],[1.1994276670156978],['target'],3,001,2025-09-28_16h56.12.516,Visual Search Experiment,,2025.1.1,None,2025-09-28 16h56.19.731088 +0530,
160,0,160,[np.float64(-0.043333333333333335)],[np.float64(-0.115)],[1],[0],[0],[0.9889351669989992],['target'],160,0,160,0,275.5789059170056,,5,275.5727582499967,275.5789059170056,275.5789059170056,0.010015416017267853,276.5617566250148,[np.float64(-0.043333333333333335)],[np.float64(-0.115)],[1],[0],[0],[0.9889351669989992],['target'],3,001,2025-09-28_16h56.12.516,Visual Search Experiment,,2025.1.1,None,2025-09-28 16h56.19.731088 +0530,
161,0,161,[np.float64(-0.09666666666666666)],[np.float64(-0.4083333333333333)],[1],[0],[0],[1.4382902090146672],['target'],161,0,161,0,276.5797672920162,,5,276.57331900001736,276.5797672920162,276.5797672920162,0.011387749982532114,278.0116696250043,[np.float64(-0.09666666666666666)],[np.float64(-0.4083333333333333)],[1],[0],[0],[1.4382902090146672],['target'],3,001,2025-09-28_16h56.12.516,Visual Search Experiment,,2025.1.1,None,2025-09-28 16h56.19.731088 +0530,
162,0,162,[np.float64(-0.2633333333333333)],[np.float64(0.08333333333333333)],[1],[0],[0],[1.3619210839970037],['target'],162,0,162,0,278.0401969170198,,10,278.0316287080059,278.0401969170198,278.0401969170198,0.019794332998571917,279.39359004201833,[np.float64(-0.2633333333333333)],[np.float64(0.08333333333333333)],[1],[0],[0],[1.3619210839970037],['target'],3,001,2025-09-28_16h56.12.516,Visual Search Experiment,,2025.1.1,None,2025-09-28 16h56.19.731088 +0530,
163,0,163,[np.float64(-0.006666666666666667)],[np.float64(0.47833333333333333)],[1],[0],[0],[1.57545754199964],['target'],163,0,163,0,279.40835220800363,,5,279.4031817500072,279.40835220800363,279.40835220800363,0.009431458980543539,280.97870683300425,[np.float64(-0.006666666666666667)],[np.float64(0.47833333333333333)],[1],[0],[0],[1.57545754199964],['target'],3,001,2025-09-28_16h56.12.516,Visual Search Experiment,,2025.1.1,None,2025-09-28 16h56.19.731088 +0530,
164,0,164,[np.float64(0.2)],[np.float64(0.08)],[1],[0],[0],[1.3876008749939501],[None],164,0,164,0,280.9974790830165,,5,280.99062237501494,280.9974790830165,280.9974790830165,0.011736999993445352,282.3782737920119,[np.float64(0.2)],[np.float64(0.08)],[1],[0],[0],[1.3876008749939501],[None],3,001,2025-09-28_16h56.12.516,Visual Search Experiment,,2025.1.1,None,2025-09-28 16h56.19.731088 +0530,
165,0,165,[np.float64(-0.44)],[np.float64(-0.18166666666666667)],[1],[0],[0],[1.588789250003174],['target'],165,0,165,0,282.39579566702014,,5,282.3896111250215,282.39579566702014,282.39579566702014,0.011193208018084988,283.97846062501776,[np.float64(-0.44)],[np.float64(-0.18166666666666667)],[1],[0],[0],[1.588789250003174],['target'],3,001,2025-09-28_16h56.12.516,Visual Search Experiment,,2025.1.1,None,2025-09-28 16h56.19.731088 +0530,
166,0,166,[np.float64(0.075)],[np.float64(0.195)],[1],[0],[0],[1.0302575000096112],['target'],166,0,166,0,284.0069063749979,,10,283.99846562501625,284.0069063749979,284.0069063749979,0.01982700001099147,285.0287629170052,[np.float64(0.075)],[np.float64(0.195)],[1],[0],[0],[1.0302575000096112],['target'],3,001,2025-09-28_16h56.12.516,Visual Search Experiment,,2025.1.1,None,2025-09-28 16h56.19.731088 +0530,
167,0,167,[np.float64(0.23833333333333334)],[np.float64(-0.17166666666666666)],[1],[0],[0],[1.8320390839944594],['target'],167,0,167,0,285.05564995799796,,10,285.0476737499994,285.05564995799796,285.05564995799796,0.018743708002148196,286.8797560830135,[np.float64(0.23833333333333334)],[np.float64(-0.17166666666666666)],[1],[0],[0],[1.8320390839944594],['target'],3,001,2025-09-28_16h56.12.516,Visual Search Experiment,,2025.1.1,None,2025-09-28 16h56.19.731088 +0530,
168,0,168,[np.float64(0.12166666666666667)],[np.float64(-0.065)],[1],[0],[0],[0.9792582920053974],['target'],168,0,168,0,286.9071615000139,,10,286.8991004170093,286.9071615000139,286.9071615000139,0.019188332982594147,287.87839316701866,[np.float64(0.12166666666666667)],[np.float64(-0.065)],[1],[0],[0],[0.9792582920053974],['target'],3,001,2025-09-28_16h56.12.516,Visual Search Experiment,,2025.1.1,None,2025-09-28 16h56.19.731088 +0530,
169,0,169,[np.float64(0.49166666666666664)],[np.float64(0.30833333333333335)],[1],[0],[0],[1.4068332499882672],['target'],169,0,169,0,287.8944846250233,,5,287.8883098750084,287.8944846250233,287.8944846250233,0.009781375003512949,289.2952052500041,[np.float64(0.49166666666666664)],[np.float64(0.30833333333333335)],[1],[0],[0],[1.4068332499882672],['target'],3,001,2025-09-28_16h56.12.516,Visual Search Experiment,,2025.1.1,None,2025-09-28 16h56.19.731088 +0530,
170,0,170,[np.float64(0.028333333333333332)],[np.float64(-0.405)],[1],[0],[0],[1.6966302919900045],['target'],170,0,170,0,289.32380270800786,,10,289.3151921670069,289.32380270800786,289.32380270800786,0.019815249979728833,291.011866292014,[np.float64(0.028333333333333332)],[np.float64(-0.405)],[1],[0],[0],[1.6966302919900045],['target'],3,001,2025-09-28_16h56.12.516,Visual Search Experiment,,2025.1.1,None,2025-09-28 16h56.19.731088 +0530,
171,0,171,[np.float64(0.29833333333333334)],[np.float64(0.11833333333333333)],[1],[0],[0],[1.9224382500106003],['target'],171,0,171,0,291.0285694170161,,5,291.02236666702083,291.0285694170161,291.0285694170161,0.010322959016775712,292.9448554580158,[np.float64(0.29833333333333334)],[np.float64(0.11833333333333333)],[1],[0],[0],[1.9224382500106003],['target'],3,001,2025-09-28_16h56.12.516,Visual Search Experiment,,2025.1.1,None,2025-09-28 16h56.19.731088 +0530,
172,0,172,[np.float64(-0.045)],[np.float64(0.3616666666666667)],[1],[0],[0],[1.0885879999841563],['target'],172,0,172,0,292.96226362499874,,5,292.9559207080165,292.96226362499874,292.96226362499874,0.010923875001026317,294.04455487499945,[np.float64(-0.045)],[np.float64(0.3616666666666667)],[1],[0],[0],[1.0885879999841563],['target'],3,001,2025-09-28_16h56.12.516,Visual Search Experiment,,2025.1.1,None,2025-09-28 16h56.19.731088 +0530,
173,0,173,[np.float64(-0.04833333333333333)],[np.float64(0.33166666666666667)],[1],[0],[0],[0.6312712499930058],['target'],173,0,173,0,294.0717967080127,,10,294.06399833300384,294.0717967080127,294.0717967080127,0.019311249983729795,294.69531170799746,[np.float64(-0.04833333333333333)],[np.float64(0.33166666666666667)],[1],[0],[0],[0.6312712499930058],['target'],3,001,2025-09-28_16h56.12.516,Visual Search Experiment,,2025.1.1,None,2025-09-28 16h56.19.731088 +0530,
174,0,174,[np.float64(0.355)],[np.float64(0.485)],[1],[0],[0],[3.0563021670095623],['target'],174,0,174,0,294.7122746670211,,5,294.7056887920189,294.7122746670211,294.7122746670211,0.01020841600256972,297.76206037501106,[np.float64(0.355)],[np.float64(0.485)],[1],[0],[0],[3.0563021670095623],['target'],3,001,2025-09-28_16h56.12.516,Visual Search Experiment,,2025.1.1,None,2025-09-28 16h56.19.731088 +0530,
175,0,175,[np.float64(0.32)],[np.float64(-0.4)],[1],[0],[0],[3.128831292007817],['target'],175,0,175,0,297.7914257920056,,10,297.78265400000964,297.7914257920056,297.7914257920056,0.020409958000527695,300.911520499998,[np.float64(0.32)],[np.float64(-0.4)],[1],[0],[0],[3.128831292007817],['target'],3,001,2025-09-28_16h56.12.516,Visual Search Experiment,,2025.1.1,None,2025-09-28 16h56.19.731088 +0530,
176,0,176,[np.float64(0.215)],[np.float64(0.23333333333333334)],[1],[0],[0],[0.9383508329920005],['target'],176,0,176,0,300.97980645799544,,10,300.9739781249955,300.97980645799544,300.97980645799544,0.062306333013111725,301.91237866700976,[np.float64(0.215)],[np.float64(0.23333333333333334)],[1],[0],[0],[0.9383508329920005],['target'],3,001,2025-09-28_16h56.12.516,Visual Search Experiment,,2025.1.1,None,2025-09-28 16h56.19.731088 +0530,
177,0,177,[np.float64(-0.42)],[np.float64(0.49333333333333335)],[1],[0],[0],[2.131530707993079],['target'],177,0,177,0,301.9380689999962,,10,301.9308195000049,301.9380689999962,301.9380689999962,0.01826629100833088,304.06239654202363,[np.float64(-0.42)],[np.float64(0.49333333333333335)],[1],[0],[0],[2.131530707993079],['target'],3,001,2025-09-28_16h56.12.516,Visual Search Experiment,,2025.1.1,None,2025-09-28 16h56.19.731088 +0530,
178,0,178,[np.float64(0.4766666666666667)],[np.float64(-0.435)],[1],[0],[0],[1.7557679579767864],['target'],178,0,178,0,304.0793887920154,,5,304.0730347500066,304.0793887920154,304.0793887920154,0.010473708010977134,305.82887041699723,[np.float64(0.4766666666666667)],[np.float64(-0.435)],[1],[0],[0],[1.7557679579767864],['target'],3,001,2025-09-28_16h56.12.516,Visual Search Experiment,,2025.1.1,None,2025-09-28 16h56.19.731088 +0530,
179,0,179,[np.float64(-0.44)],[np.float64(0.43)],[1],[0],[0],[1.9539828340057284],['target'],179,0,179,0,305.847237458016,,5,305.84043300000485,305.847237458016,305.847237458016,0.011385667021386325,307.7944645420066,[np.float64(-0.44)],[np.float64(0.43)],[1],[0],[0],[1.9539828340057284],['target'],3,001,2025-09-28_16h56.12.516,Visual Search Experiment,,2025.1.1,None,2025-09-28 16h56.19.731088 +0530,
180,0,180,[np.float64(0.27666666666666667)],[np.float64(0.25833333333333336)],[1],[0],[0],[1.3720996670017485],['target'],180,0,180,0,307.81299950001994,,5,307.80591745799757,307.81299950001994,307.81299950001994,0.011312165996059775,309.1780802080175,[np.float64(0.27666666666666667)],[np.float64(0.25833333333333336)],[1],[0],[0],[1.3720996670017485],['target'],3,001,2025-09-28_16h56.12.516,Visual Search Experiment,,2025.1.1,None,2025-09-28 16h56.19.731088 +0530,
181,0,181,[np.float64(-0.09166666666666666)],[np.float64(-0.4666666666666667)],[1],[0],[0],[1.563773791975109],['target'],181,0,181,0,309.20582020800794,,10,309.19800287499675,309.20582020800794,309.20582020800794,0.019751166983041912,310.76182116701966,[np.float64(-0.09166666666666666)],[np.float64(-0.4666666666666667)],[1],[0],[0],[1.563773791975109],['target'],3,001,2025-09-28_16h56.12.516,Visual Search Experiment,,2025.1.1,None,2025-09-28 16h56.19.731088 +0530,
182,0,182,[np.float64(0.10833333333333334)],[np.float64(0.175)],[1],[0],[0],[1.898062749998644],['target'],182,0,182,0,310.78803962501115,,10,310.78065349999815,310.78803962501115,310.78803962501115,0.018669540993869305,312.67875295801787,[np.float64(0.10833333333333334)],[np.float64(0.175)],[1],[0],[0],[1.898062749998644],['target'],3,001,2025-09-28_16h56.12.516,Visual Search Experiment,,2025.1.1,None,2025-09-28 16h56.19.731088 +0530,
183,0,183,[np.float64(0.24333333333333335)],[np.float64(0.48333333333333334)],[1],[0],[0],[0.9238744169997517],['target'],183,0,183,0,312.6954778750078,,5,312.6884767920128,312.6954778750078,312.6954778750078,0.009586916014086455,313.61241066700313,[np.float64(0.24333333333333335)],[np.float64(0.48333333333333334)],[1],[0],[0],[0.9238744169997517],['target'],3,001,2025-09-28_16h56.12.516,Visual Search Experiment,,2025.1.1,None,2025-09-28 16h56.19.731088 +0530,
184,0,184,[np.float64(0.041666666666666664)],[np.float64(0.1)],[1],[0],[0],[1.8464563330053352],['target'],184,0,184,0,313.6405867499998,,10,313.6324010420067,313.6405867499998,313.6405867499998,0.019820708985207602,315.47890029201517,[np.float64(0.041666666666666664)],[np.float64(0.1)],[1],[0],[0],[1.8464563330053352],['target'],3,001,2025-09-28_16h56.12.516,Visual Search Experiment,,2025.1.1,None,2025-09-28 16h56.19.731088 +0530,
185,0,185,[np.float64(0.11333333333333333)],[np.float64(0.085)],[1],[0],[0],[0.7719905840058345],['target'],185,0,185,0,315.49607600001036,,5,315.4897495000041,315.49607600001036,315.49607600001036,0.010691832983866334,316.26179887499893,[np.float64(0.11333333333333333)],[np.float64(0.085)],[1],[0],[0],[0.7719905840058345],['target'],3,001,2025-09-28_16h56.12.516,Visual Search Experiment,,2025.1.1,None,2025-09-28 16h56.19.731088 +0530,
186,0,186,[np.float64(-0.33166666666666667)],[np.float64(-0.16833333333333333)],[1],[0],[0],[1.6715126250055619],['target'],186,0,186,0,316.28066266700625,,5,316.27373899999657,316.28066266700625,316.28066266700625,0.011768875003326684,317.9453163750004,[np.float64(-0.33166666666666667)],[np.float64(-0.16833333333333333)],[1],[0],[0],[1.6715126250055619],['target'],3,001,2025-09-28_16h56.12.516,Visual Search Experiment,,2025.1.1,None,2025-09-28 16h56.19.731088 +0530,
187,0,187,[np.float64(-0.31166666666666665)],[np.float64(-0.2633333333333333)],[1],[0],[0],[1.9965385410177987],['target'],187,0,187,0,317.9734613750188,,10,317.96517179202056,317.9734613750188,317.9734613750188,0.019670459005283192,319.9617457080167,[np.float64(-0.31166666666666665)],[np.float64(-0.2633333333333333)],[1],[0],[0],[1.9965385410177987],['target'],3,001,2025-09-28_16h56.12.516,Visual Search Experiment,,2025.1.1,None,2025-09-28 16h56.19.731088 +0530,
188,0,188,[np.float64(-0.25166666666666665)],[np.float64(-0.245)],[1],[0],[0],[0.6900013750127982],[None],188,0,188,0,319.9777849170205,,5,319.97179224999854,319.9777849170205,319.9777849170205,0.009909416025038809,320.6618639579974,[np.float64(-0.25166666666666665)],[np.float64(-0.245)],[1],[0],[0],[0.6900013750127982],[None],3,001,2025-09-28_16h56.12.516,Visual Search Experiment,,2025.1.1,None,2025-09-28 16h56.19.731088 +0530,
189,0,189,[np.float64(-0.43833333333333335)],[np.float64(-0.4716666666666667)],[1],[0],[0],[2.864637374994345],['target'],189,0,189,0,320.6811471670226,,5,320.6743906670017,320.6811471670226,320.6811471670226,0.012351917015621439,323.5390576250211,[np.float64(-0.43833333333333335)],[np.float64(-0.4716666666666667)],[1],[0],[0],[2.864637374994345],['target'],3,001,2025-09-28_16h56.12.516,Visual Search Experiment,,2025.1.1,None,2025-09-28 16h56.19.731088 +0530,
190,0,190,[np.float64(0.09833333333333333)],[np.float64(0.49333333333333335)],[1],[0],[0],[8.96986112499144],['target'],190,0,190,0,323.5581845420238,,10,323.55164637501,323.5581845420238,323.5581845420238,0.012504458019975573,332.5215378749999,[np.float64(0.09833333333333333)],[np.float64(0.49333333333333335)],[1],[0],[0],[8.96986112499144],['target'],3,001,2025-09-28_16h56.12.516,Visual Search Experiment,,2025.1.1,None,2025-09-28 16h56.19.731088 +0530,
191,0,191,[np.float64(-0.005)],[np.float64(-0.38166666666666665)],[1],[0],[0],[1.6709177079901565],['target'],191,0,191,0,332.5405268750037,,10,332.53415849999874,332.5405268750037,332.5405268750037,0.012518417002866045,334.2051147080201,[np.float64(-0.005)],[np.float64(-0.38166666666666665)],[1],[0],[0],[1.6709177079901565],['target'],3,001,2025-09-28_16h56.12.516,Visual Search Experiment,,2025.1.1,None,2025-09-28 16h56.19.731088 +0530,
192,0,192,[np.float64(0.0033333333333333335)],[np.float64(0.18333333333333332)],[1],[0],[0],[0.876699207990896],['target'],192,0,192,0,334.2161322920001,,5,334.21155700000236,334.2161322920001,334.2161322920001,0.006320417014649138,335.0882877080003,[np.float64(0.0033333333333333335)],[np.float64(0.18333333333333332)],[1],[0],[0],[0.876699207990896],['target'],3,001,2025-09-28_16h56.12.516,Visual Search Experiment,,2025.1.1,None,2025-09-28 16h56.19.731088 +0530,
193,0,193,[np.float64(-0.4116666666666667)],[np.float64(0.041666666666666664)],[1],[0],[0],[1.6598842079984024],['target'],193,0,193,0,335.09956379199866,,5,335.0949389169982,335.09956379199866,335.09956379199866,0.006571250007255003,336.7548535000242,[np.float64(-0.4116666666666667)],[np.float64(0.041666666666666664)],[1],[0],[0],[1.6598842079984024],['target'],3,001,2025-09-28_16h56.12.516,Visual Search Experiment,,2025.1.1,None,2025-09-28 16h56.19.731088 +0530,
194,0,194,[np.float64(-0.008333333333333333)],[np.float64(-0.10833333333333334)],[1],[0],[0],[1.0772946669894736],['target'],194,0,194,0,336.7656635000021,,5,336.7613547500223,336.7656635000021,336.7656635000021,0.006421959027647972,337.8386767920165,[np.float64(-0.008333333333333333)],[np.float64(-0.10833333333333334)],[1],[0],[0],[1.0772946669894736],['target'],3,001,2025-09-28_16h56.12.516,Visual Search Experiment,,2025.1.1,None,2025-09-28 16h56.19.731088 +0530,
195,0,195,[np.float64(-0.38666666666666666)],[np.float64(0.26166666666666666)],[1],[0],[0],[1.820520832989132],['target'],195,0,195,0,337.8574124580191,,10,337.8511435420078,337.8574124580191,337.8574124580191,0.012385042005917057,339.6716936250159,[np.float64(-0.38666666666666666)],[np.float64(0.26166666666666666)],[1],[0],[0],[1.820520832989132],['target'],3,001,2025-09-28_16h56.12.516,Visual Search Experiment,,2025.1.1,None,2025-09-28 16h56.19.731088 +0530,
196,0,196,[np.float64(-0.24166666666666667)],[np.float64(0.315)],[1],[0],[0],[0.90407570800744],['target'],196,0,196,0,339.6904052500031,,10,339.6841845830204,339.6904052500031,339.6904052500031,0.01239424999221228,340.5882904580212,[np.float64(-0.24166666666666667)],[np.float64(0.315)],[1],[0],[0],[0.90407570800744],['target'],3,001,2025-09-28_16h56.12.516,Visual Search Experiment,,2025.1.1,None,2025-09-28 16h56.19.731088 +0530,
197,0,197,[np.float64(-0.07333333333333333)],[np.float64(0.44)],[1],[0],[0],[1.0703638329869136],['target'],197,0,197,0,340.6072586670052,,10,340.60121775002335,340.6072586670052,340.6072586670052,0.012833666027290747,341.67161079202197,[np.float64(-0.07333333333333333)],[np.float64(0.44)],[1],[0],[0],[1.0703638329869136],['target'],3,001,2025-09-28_16h56.12.516,Visual Search Experiment,,2025.1.1,None,2025-09-28 16h56.19.731088 +0530,
198,0,198,[np.float64(-0.20333333333333334)],[np.float64(-0.41)],[1],[0],[0],[1.2772820829995908],['target'],198,0,198,0,341.6825410420133,,5,341.67837079201126,341.6825410420133,341.6825410420133,0.006672165996860713,342.9556824169995,[np.float64(-0.20333333333333334)],[np.float64(-0.41)],[1],[0],[0],[1.2772820829995908],['target'],3,001,2025-09-28_16h56.12.516,Visual Search Experiment,,2025.1.1,None,2025-09-28 16h56.19.731088 +0530,
199,0,199,[np.float64(-0.5)],[np.float64(-0.03166666666666667)],[1],[0],[0],[1.0036369999870658],['target'],199,0,199,0,342.97400495799957,,10,342.9678490420047,342.97400495799957,342.97400495799957,0.012100207997718826,343.9715147500101,[np.float64(-0.5)],[np.float64(-0.03166666666666667)],[1],[0],[0],[1.0036369999870658],['target'],3,001,2025-09-28_16h56.12.516,Visual Search Experiment,,2025.1.1,None,2025-09-28 16h56.19.731088 +0530,
