pos,corr_resp,thisN,thisTrialN,thisRepN,key_resp.keys,key_resp.corr,key_resp.rt,key_resp.duration,trials.thisRepN,trials.thisTrialN,trials.thisN,trials.thisIndex,trials_2.thisRepN,trials_2.thisTrialN,trials_2.thisN,trials_2.thisIndex,thisRow.t,notes,trial.started,fixation.started,line_1.started,line_2.started,line_3.started,line_4.started,fixation.stopped,probe.started,key_resp.started,trial.stopped,trials.key_resp.keys,trials.key_resp.corr,trials.key_resp.rt,trials.key_resp.duration,trials_2.key_resp.keys,trials_2.key_resp.corr,trials_2.key_resp.rt,trials_2.key_resp.duration,participant,session,date,expName,expVersion,psychopyVersion,frameRate,expStart,
-50,x,0,0,0,x,1,0.44849341601366177,None,0,0,0,0,,,,,0.012203124992083758,,0.008883750007953495,0.012203124992083758,1.0016012089909054,1.0016012089909054,1.0016012089909054,1.0016012089909054,1.0154649169999175,1.9898327920236625,1.9898327920236625,2.6234617920126766,x,1,0.44849341601366177,None,,,,,4,001,2025-10-01_12h55.44.841, Motor Sequence Learning,,2025.1.1,None,2025-10-01 12h55.51.742936 +0530,
150,v,1,1,0,v,1,0.2927321250317618,None,0,1,1,1,,,,,2.6282663340098225,,2.623633000010159,2.6282663340098225,3.6213298339862376,3.6213298339862376,3.6213298339862376,3.6213298339862376,3.6213298339862376,4.621745250013191,4.621745250013191,4.917438334028702,v,1,0.2927321250317618,None,,,,,4,001,2025-10-01_12h55.44.841, Motor Sequence Learning,,2025.1.1,None,2025-10-01 12h55.51.742936 +0530,
50,c,2,2,0,c,1,0.2544474999886006,None,0,2,2,2,,,,,4.926636292017065,,4.9180945419939235,4.926636292017065,5.91582950000884,5.91582950000884,5.91582950000884,5.91582950000884,5.920863625011407,6.915795834036544,6.915795834036544,7.171990375034511,c,1,0.2544474999886006,None,,,,,4,001,2025-10-01_12h55.44.841, Motor Sequence Learning,,2025.1.1,None,2025-10-01 12h55.51.742936 +0530,
-150,z,3,3,0,z,1,0.2577720829867758,None,0,3,3,3,,,,,7.181687792006414,,7.17248304199893,7.181687792006414,8.170278750010766,8.170278750010766,8.170278750010766,8.170278750010766,8.170278750010766,9.17146679200232,9.17146679200232,9.434282125032041,z,1,0.2577720829867758,None,,,,,4,001,2025-10-01_12h55.44.841, Motor Sequence Learning,,2025.1.1,None,2025-10-01 12h55.51.742936 +0530,
-50,x,4,0,1,x,1,0.4336156250210479,None,1,0,4,0,,,,,9.443607625027653,,9.434959417034406,9.443607625027653,10.43242058402393,10.43242058402393,10.43242058402393,10.43242058402393,10.436805459030438,11.432420167024247,11.432420167024247,11.872474959003739,x,1,0.4336156250210479,None,,,,,4,001,2025-10-01_12h55.44.841, Motor Sequence Learning,,2025.1.1,None,2025-10-01 12h55.51.742936 +0530,
150,v,5,1,1,v,1,0.42797433299710974,None,1,1,5,1,,,,,11.882261709019076,,11.873001584026497,11.882261709019076,12.871526000031736,12.871526000031736,12.871526000031736,12.871526000031736,12.871526000031736,13.87209250003798,13.87209250003798,14.304884125012904,v,1,0.42797433299710974,None,,,,,4,001,2025-10-01_12h55.44.841, Motor Sequence Learning,,2025.1.1,None,2025-10-01 12h55.51.742936 +0530,
50,c,6,2,1,c,1,0.22579587495420128,None,1,2,6,2,,,,,14.315005334035959,,14.305401834018994,14.315005334035959,15.304513209033757,15.304513209033757,15.304513209033757,15.304513209033757,15.304513209033757,16.299216209037695,16.299216209037695,16.53407941700425,c,1,0.22579587495420128,None,,,,,4,001,2025-10-01_12h55.44.841, Motor Sequence Learning,,2025.1.1,None,2025-10-01 12h55.51.742936 +0530,
-150,z,7,3,1,z,1,0.3304907499696128,None,1,3,7,3,,,,,16.54403737501707,,16.534622792038135,16.54403737501707,17.532293875003234,17.532293875003234,17.532293875003234,17.532293875003234,17.536631042021327,18.532409792009275,18.532409792009275,18.86766395898303,z,1,0.3304907499696128,None,,,,,4,001,2025-10-01_12h55.44.841, Motor Sequence Learning,,2025.1.1,None,2025-10-01 12h55.51.742936 +0530,
-50,x,8,0,2,x,1,0.42314541700761765,None,2,0,8,0,,,,,18.877855375001673,,18.868480292032473,18.877855375001673,19.865691624989267,19.865691624989267,19.865691624989267,19.865691624989267,19.870219542004634,20.86578512500273,20.86578512500273,21.300872249994427,x,1,0.42314541700761765,None,,,,,4,001,2025-10-01_12h55.44.841, Motor Sequence Learning,,2025.1.1,None,2025-10-01 12h55.51.742936 +0530,
150,v,9,1,2,v,1,0.3117819579783827,None,2,1,9,1,,,,,21.310657583991997,,21.301461709022988,21.310657583991997,22.299190792022273,22.299190792022273,22.299190792022273,22.299190792022273,22.302379209024366,23.29907870903844,23.29907870903844,23.617607833992224,v,1,0.3117819579783827,None,,,,,4,001,2025-10-01_12h55.44.841, Motor Sequence Learning,,2025.1.1,None,2025-10-01 12h55.51.742936 +0530,
50,c,10,2,2,c,1,0.4111111239762977,None,2,2,10,2,,,,,23.627139583986718,,23.618302209011745,23.627139583986718,24.615953500033356,24.615953500033356,24.615953500033356,24.615953500033356,24.62205908400938,25.615746291994583,25.615746291994583,26.034159250033554,c,1,0.4111111239762977,None,,,,,4,001,2025-10-01_12h55.44.841, Motor Sequence Learning,,2025.1.1,None,2025-10-01 12h55.51.742936 +0530,
-150,z,11,3,2,z,1,0.43316237401450053,None,2,3,11,3,,,,,26.043705208983738,,26.034778792003635,26.043705208983738,27.03234216698911,27.03234216698911,27.03234216698911,27.03234216698911,27.0368312500068,28.03246079199016,28.03246079199016,28.47754791699117,z,1,0.43316237401450053,None,,,,,4,001,2025-10-01_12h55.44.841, Motor Sequence Learning,,2025.1.1,None,2025-10-01 12h55.51.742936 +0530,
-50,x,12,0,3,x,1,0.3633650410338305,None,3,0,12,0,,,,,28.481575625017285,,28.478000542032532,28.481575625017285,29.471445250033867,29.471445250033867,29.471445250033867,29.471445250033867,29.471445250033867,30.470711458998267,30.470711458998267,30.837596416997258,x,1,0.3633650410338305,None,,,,,4,001,2025-10-01_12h55.44.841, Motor Sequence Learning,,2025.1.1,None,2025-10-01 12h55.51.742936 +0530,
150,v,13,1,3,v,1,0.3665338329738006,None,3,1,13,1,,,,,30.848258792015258,,30.83810466702562,30.848258792015258,31.832414000004064,31.832414000004064,31.832414000004064,31.832414000004064,31.83695908403024,32.83817679202184,32.83817679202184,33.21777387498878,v,1,0.3665338329738006,None,,,,,4,001,2025-10-01_12h55.44.841, Motor Sequence Learning,,2025.1.1,None,2025-10-01 12h55.51.742936 +0530,
50,c,14,2,3,c,1,0.18765804095892236,None,3,2,14,2,,,,,33.22774170903722,,33.21830637502717,33.22774170903722,34.2158350420068,34.2158350420068,34.2158350420068,34.2158350420068,34.22106075001648,35.21588791703107,35.21588791703107,35.405659959011246,c,1,0.18765804095892236,None,,,,,4,001,2025-10-01_12h55.44.841, Motor Sequence Learning,,2025.1.1,None,2025-10-01 12h55.51.742936 +0530,
-150,z,15,3,3,z,1,0.37984370795311406,None,3,3,15,3,,,,,35.41573629202321,,35.406153584015556,35.41573629202321,36.404439834004734,36.404439834004734,36.404439834004734,36.404439834004734,36.404439834004734,37.40569458401296,37.40569458401296,37.78827324998565,z,1,0.37984370795311406,None,,,,,4,001,2025-10-01_12h55.44.841, Motor Sequence Learning,,2025.1.1,None,2025-10-01 12h55.51.742936 +0530,
-50,x,16,0,4,x,1,0.328457874013111,None,4,0,16,0,,,,,37.79892983403988,,37.78880208398914,37.79892983403988,38.78785925003467,38.78785925003467,38.78785925003467,38.78785925003467,38.78785925003467,39.788148917024955,39.788148917024955,40.12118520902004,x,1,0.328457874013111,None,,,,,4,001,2025-10-01_12h55.44.841, Motor Sequence Learning,,2025.1.1,None,2025-10-01 12h55.51.742936 +0530,
150,v,17,1,4,v,1,0.32271245802985504,None,4,1,17,1,,,,,40.13245079200715,,40.12166187498951,40.13245079200715,41.12144470901694,41.12144470901694,41.12144470901694,41.12144470901694,41.12144470901694,42.115691417013295,42.115691417013295,42.45059591700556,v,1,0.32271245802985504,None,,,,,4,001,2025-10-01_12h55.44.841, Motor Sequence Learning,,2025.1.1,None,2025-10-01 12h55.51.742936 +0530,
50,c,18,2,4,c,1,0.29018070799065754,None,4,2,18,2,,,,,42.45874366699718,,42.451156500028446,42.45874366699718,43.44908970902907,43.44908970902907,43.44908970902907,43.44908970902907,43.45427687501069,44.44918079202762,44.44918079202762,44.75093841704074,c,1,0.29018070799065754,None,,,,,4,001,2025-10-01_12h55.44.841, Motor Sequence Learning,,2025.1.1,None,2025-10-01 12h55.51.742936 +0530,
-150,z,19,3,4,z,1,0.2984081659815274,None,4,3,19,3,,,,,44.75975433399435,,44.75185058399802,44.75975433399435,45.74893825000618,45.74893825000618,45.74893825000618,45.74893825000618,45.752958709024824,46.748889875016175,46.748889875016175,47.050748875015415,z,1,0.2984081659815274,None,,,,,4,001,2025-10-01_12h55.44.841, Motor Sequence Learning,,2025.1.1,None,2025-10-01 12h55.51.742936 +0530,
-50,x,20,0,5,x,1,0.3002391660120338,None,5,0,20,0,,,,,47.05895666702418,,47.05131708399858,47.05895666702418,48.04912320902804,48.04912320902804,48.04912320902804,48.04912320902804,48.05371633399045,49.04904945899034,49.04904945899034,49.35563720902428,x,1,0.3002391660120338,None,,,,,4,001,2025-10-01_12h55.44.841, Motor Sequence Learning,,2025.1.1,None,2025-10-01 12h55.51.742936 +0530,
150,v,21,1,5,v,1,0.3001274580019526,None,5,1,21,1,,,,,49.36492575000739,,49.35611183400033,49.36492575000739,50.35425525001483,50.35425525001483,50.35425525001483,50.35425525001483,50.35425525001483,51.355055875028484,51.355055875028484,51.667671750008594,v,1,0.3001274580019526,None,,,,,4,001,2025-10-01_12h55.44.841, Motor Sequence Learning,,2025.1.1,None,2025-10-01 12h55.51.742936 +0530,
50,c,22,2,5,c,1,0.3024556660093367,None,5,2,22,2,,,,,51.67610587499803,,51.66833241702989,51.67610587499803,52.66580391698517,52.66580391698517,52.66580391698517,52.66580391698517,52.66988595901057,53.66572516702581,53.66572516702581,53.971009792003315,c,1,0.3024556660093367,None,,,,,4,001,2025-10-01_12h55.44.841, Motor Sequence Learning,,2025.1.1,None,2025-10-01 12h55.51.742936 +0530,
-150,z,23,3,5,z,1,0.2512549160164781,None,5,3,23,3,,,,,53.98241162503837,,53.97152095899219,53.98241162503837,54.9713570420281,54.9713570420281,54.9713570420281,54.9713570420281,54.9713570420281,55.96580870903563,55.96580870903563,56.222786083992105,z,1,0.2512549160164781,None,,,,,4,001,2025-10-01_12h55.44.841, Motor Sequence Learning,,2025.1.1,None,2025-10-01 12h55.51.742936 +0530,
-50,x,24,0,6,x,1,0.2973508330178447,None,6,0,24,0,,,,,56.23177841701545,,56.22331262502121,56.23177841701545,57.220350124989636,57.220350124989636,57.220350124989636,57.220350124989636,57.220350124989636,58.22065729199676,58.22065729199676,58.52237270900514,x,1,0.2973508330178447,None,,,,,4,001,2025-10-01_12h55.44.841, Motor Sequence Learning,,2025.1.1,None,2025-10-01 12h55.51.742936 +0530,
150,v,25,1,6,v,1,0.33456462499452755,None,6,1,25,1,,,,,58.53151658398565,,58.52290045900736,58.53151658398565,59.520928625017405,59.520928625017405,59.520928625017405,59.520928625017405,59.520928625017405,60.52142075001029,60.52142075001029,60.86724720901111,v,1,0.33456462499452755,None,,,,,4,001,2025-10-01_12h55.44.841, Motor Sequence Learning,,2025.1.1,None,2025-10-01 12h55.51.742936 +0530,
50,c,26,2,6,c,1,0.30716337502235547,None,6,2,26,2,,,,,60.875442416989245,,60.86778483400121,60.875442416989245,61.86562637501629,61.86562637501629,61.86562637501629,61.86562637501629,61.870838750037365,62.865748875017744,62.865748875017744,63.18384925002465,c,1,0.30716337502235547,None,,,,,4,001,2025-10-01_12h55.44.841, Motor Sequence Learning,,2025.1.1,None,2025-10-01 12h55.51.742936 +0530,
-150,z,27,3,6,z,1,0.31936374999349937,None,6,3,27,3,,,,,63.192235708993394,,63.184418499993626,63.192235708993394,64.18240620900178,64.18240620900178,64.18240620900178,64.18240620900178,64.18693670904031,65.18252245901385,65.18252245901385,65.50529300002381,z,1,0.31936374999349937,None,,,,,4,001,2025-10-01_12h55.44.841, Motor Sequence Learning,,2025.1.1,None,2025-10-01 12h55.51.742936 +0530,
-50,x,28,0,7,x,1,0.2583676250069402,None,7,0,28,0,,,,,65.51484779198654,,65.50578141701408,65.51484779198654,66.50469591701403,66.50469591701403,66.50469591701403,66.50469591701403,66.50469591701403,67.50459695898462,67.50459695898462,67.76747079199413,x,1,0.2583676250069402,None,,,,,4,001,2025-10-01_12h55.44.841, Motor Sequence Learning,,2025.1.1,None,2025-10-01 12h55.51.742936 +0530,
150,v,29,1,7,v,1,0.29318245803005993,None,7,1,29,1,,,,,67.77612295903964,,67.76816187502118,67.77612295903964,68.76575362501899,68.76575362501899,68.76575362501899,68.76575362501899,68.77082129201153,69.76566833403194,69.76566833403194,70.06763499998488,v,1,0.29318245803005993,None,,,,,4,001,2025-10-01_12h55.44.841, Motor Sequence Learning,,2025.1.1,None,2025-10-01 12h55.51.742936 +0530,
50,c,30,2,7,c,1,0.3142295409925282,None,7,2,30,2,,,,,70.07644595898455,,70.06832995900186,70.07644595898455,71.06566979200579,71.06566979200579,71.06566979200579,71.06566979200579,71.07000779203372,72.06561233400134,72.06561233400134,72.3842369170161,c,1,0.3142295409925282,None,,,,,4,001,2025-10-01_12h55.44.841, Motor Sequence Learning,,2025.1.1,None,2025-10-01 12h55.51.742936 +0530,
-150,z,31,3,7,z,1,0.25737450004089624,None,7,3,31,3,,,,,72.39298420900013,,72.3849152920302,72.39298420900013,73.3825196250109,73.3825196250109,73.3825196250109,73.3825196250109,73.38857075001579,74.38234895898495,74.38234895898495,74.65036320901709,z,1,0.25737450004089624,None,,,,,4,001,2025-10-01_12h55.44.841, Motor Sequence Learning,,2025.1.1,None,2025-10-01 12h55.51.742936 +0530,
-50,x,32,0,8,x,1,0.2847120829974301,None,8,0,32,0,,,,,74.65709391701967,,74.65083808399504,74.65709391701967,75.64908275002381,75.64908275002381,75.64908275002381,75.64908275002381,75.65314100001706,76.64901608403306,76.64901608403306,76.93806241702987,x,1,0.2847120829974301,None,,,,,4,001,2025-10-01_12h55.44.841, Motor Sequence Learning,,2025.1.1,None,2025-10-01 12h55.51.742936 +0530,
150,v,33,1,8,v,1,0.6269013750134036,None,8,1,33,1,,,,,76.94898383400869,,76.9385580419912,76.94898383400869,77.93701395898825,77.93701395898825,77.93701395898825,77.93701395898825,77.93701395898825,78.9379664590233,78.9379664590233,79.567120584019,v,1,0.6269013750134036,None,,,,,4,001,2025-10-01_12h55.44.841, Motor Sequence Learning,,2025.1.1,None,2025-10-01 12h55.51.742936 +0530,
50,c,34,2,8,c,1,0.28916391695383936,None,8,2,34,2,,,,,79.57509004202439,,79.5676899169921,79.57509004202439,80.56564841698855,80.56564841698855,80.56564841698855,80.56564841698855,80.57064304203959,81.56553954200353,81.56553954200353,81.86711616703542,c,1,0.28916391695383936,None,,,,,4,001,2025-10-01_12h55.44.841, Motor Sequence Learning,,2025.1.1,None,2025-10-01 12h55.51.742936 +0530,
-150,z,35,3,8,z,1,0.38157474901527166,None,8,3,35,3,,,,,81.87516391702229,,81.86765541700879,81.87516391702229,82.86560600000666,82.86560600000666,82.86560600000666,82.86560600000666,82.87077770900214,83.8659434170113,83.8659434170113,84.2504514590255,z,1,0.38157474901527166,None,,,,,4,001,2025-10-01_12h55.44.841, Motor Sequence Learning,,2025.1.1,None,2025-10-01 12h55.51.742936 +0530,
-50,x,36,0,9,x,1,0.3175503740203567,None,9,0,36,0,,,,,84.25862187502207,,84.25103550002677,84.25862187502207,85.24897616700036,85.24897616700036,85.24897616700036,85.24897616700036,85.25378400000045,86.24889820901444,86.24889820901444,86.57240616698982,x,1,0.3175503740203567,None,,,,,4,001,2025-10-01_12h55.44.841, Motor Sequence Learning,,2025.1.1,None,2025-10-01 12h55.51.742936 +0530,
150,v,37,1,9,v,1,0.3488887910498306,None,9,1,37,1,,,,,86.58150945900707,,86.57290516700596,86.58150945900707,87.57023062498774,87.57023062498774,87.57023062498774,87.57023062498774,87.57023062498774,88.57151700003305,88.57151700003305,88.92162279202603,v,1,0.3488887910498306,None,,,,,4,001,2025-10-01_12h55.44.841, Motor Sequence Learning,,2025.1.1,None,2025-10-01 12h55.51.742936 +0530,
50,c,38,2,9,c,1,0.2818658330361359,None,9,2,38,2,,,,,88.93219979200512,,88.92213750001974,88.93219979200512,89.92009870900074,89.92009870900074,89.92009870900074,89.92009870900074,89.92009870900074,90.92155112500768,90.92155112500768,91.20576083404012,c,1,0.2818658330361359,None,,,,,4,001,2025-10-01_12h55.44.841, Motor Sequence Learning,,2025.1.1,None,2025-10-01 12h55.51.742936 +0530,
-150,z,39,3,9,z,1,0.39346620795549825,None,9,3,39,3,,,,,91.21482699998887,,91.20625320903491,91.21482699998887,92.20534558402142,92.20534558402142,92.20534558402142,92.20534558402142,92.20534558402142,93.20479087502463,93.20479087502463,93.60076699999627,z,1,0.39346620795549825,None,,,,,4,001,2025-10-01_12h55.44.841, Motor Sequence Learning,,2025.1.1,None,2025-10-01 12h55.51.742936 +0530,
-50,x,40,0,10,x,1,0.36536125000566244,None,10,0,40,0,,,,,93.60958791698795,,93.60157758399146,93.60958791698795,94.59904891700717,94.59904891700717,94.59904891700717,94.59904891700717,94.60429479199229,95.59894258400891,95.59894258400891,95.96769991703331,x,1,0.36536125000566244,None,,,,,4,001,2025-10-01_12h55.44.841, Motor Sequence Learning,,2025.1.1,None,2025-10-01 12h55.51.742936 +0530,
150,v,41,1,10,v,1,0.26955129200359806,None,10,1,41,1,,,,,95.9770314170164,,95.96818616701057,95.9770314170164,96.96561708400259,96.96561708400259,96.96561708400259,96.96561708400259,96.97014858399052,97.96568254200974,97.96568254200974,98.23783691698918,v,1,0.26955129200359806,None,,,,,4,001,2025-10-01_12h55.44.841, Motor Sequence Learning,,2025.1.1,None,2025-10-01 12h55.51.742936 +0530,
50,c,42,2,10,c,1,0.31118866603355855,None,10,2,42,2,,,,,98.248184208991,,98.23837520903908,98.248184208991,99.23891362501308,99.23891362501308,99.23891362501308,99.23891362501308,99.23891362501308,100.23237899999367,100.23237899999367,100.55065770901274,c,1,0.31118866603355855,None,,,,,4,001,2025-10-01_12h55.44.841, Motor Sequence Learning,,2025.1.1,None,2025-10-01 12h55.51.742936 +0530,
-150,z,43,3,10,z,1,0.28926833299919963,None,10,3,43,3,,,,,100.55977987503866,,100.55117325001629,100.55977987503866,101.54886770900339,101.54886770900339,101.54886770900339,101.54886770900339,101.55403195903637,102.54888354201103,102.54888354201103,102.85065808403306,z,1,0.28926833299919963,None,,,,,4,001,2025-10-01_12h55.44.841, Motor Sequence Learning,,2025.1.1,None,2025-10-01 12h55.51.742936 +0530,
-50,x,44,0,11,x,1,0.2730005419580266,None,11,0,44,0,,,,,102.8599229590036,,102.85122933401726,102.8599229590036,103.84893583401572,103.84893583401572,103.84893583401572,103.84893583401572,103.85346758400556,104.84907333401497,104.84907333401497,105.13397033401998,x,1,0.2730005419580266,None,,,,,4,001,2025-10-01_12h55.44.841, Motor Sequence Learning,,2025.1.1,None,2025-10-01 12h55.51.742936 +0530,
150,v,45,1,11,v,1,0.3238425410236232,None,11,1,45,1,,,,,105.14347016700776,,105.13454208400799,105.14347016700776,106.13248745899182,106.13248745899182,106.13248745899182,106.13248745899182,106.13864975003526,107.13214995898306,107.13214995898306,107.46728987502865,v,1,0.3238425410236232,None,,,,,4,001,2025-10-01_12h55.44.841, Motor Sequence Learning,,2025.1.1,None,2025-10-01 12h55.51.742936 +0530,
50,c,46,2,11,c,1,0.2424882909981534,None,11,2,46,2,,,,,107.47673445899272,,107.46787625004072,107.47673445899272,108.46556870901259,108.46556870901259,108.46556870901259,108.46556870901259,108.47047058399767,109.46549662499456,109.46549662499456,109.71718220901676,c,1,0.2424882909981534,None,,,,,4,001,2025-10-01_12h55.44.841, Motor Sequence Learning,,2025.1.1,None,2025-10-01 12h55.51.742936 +0530,
-150,z,47,3,11,z,1,0.2543655420304276,None,11,3,47,3,,,,,109.72687612503069,,109.71786575001897,109.72687612503069,110.71562045899918,110.71562045899918,110.71562045899918,110.71562045899918,110.71980695903767,111.71556625002995,111.71556625002995,111.97240274999058,z,1,0.2543655420304276,None,,,,,4,001,2025-10-01_12h55.44.841, Motor Sequence Learning,,2025.1.1,None,2025-10-01 12h55.51.742936 +0530,
-50,x,48,0,12,x,1,0.32188449997920543,None,12,0,48,0,,,,,111.98173775000032,,111.97288887499599,111.98173775000032,112.97111583402148,112.97111583402148,112.97111583402148,112.97111583402148,112.97111583402148,113.97109312500106,113.97109312500106,114.30064183403738,x,1,0.32188449997920543,None,,,,,4,001,2025-10-01_12h55.44.841, Motor Sequence Learning,,2025.1.1,None,2025-10-01 12h55.51.742936 +0530,
150,v,49,1,12,c,0,0.3406633749837056,None,12,1,49,1,,,,,114.310056834016,,114.30127674998948,114.310056834016,115.29892566701164,115.29892566701164,115.29892566701164,115.29892566701164,115.30431912501808,116.29900116700446,116.29900116700446,116.65090283402242,c,0,0.3406633749837056,None,,,,,4,001,2025-10-01_12h55.44.841, Motor Sequence Learning,,2025.1.1,None,2025-10-01 12h55.51.742936 +0530,
50,c,50,2,12,c,1,0.46088529098778963,None,12,2,50,2,,,,,116.66049074998591,,116.65158325002994,116.66049074998591,117.64902433403768,117.64902433403768,117.64902433403768,117.64902433403768,117.65395083400654,118.64896254200721,118.64896254200721,119.11739637498977,c,1,0.46088529098778963,None,,,,,4,001,2025-10-01_12h55.44.841, Motor Sequence Learning,,2025.1.1,None,2025-10-01 12h55.51.742936 +0530,
-150,z,51,3,12,z,1,0.2690195409813896,None,12,3,51,3,,,,,119.1269497500034,,119.11806549999164,119.1269497500034,120.11559654201847,120.11559654201847,120.11559654201847,120.11559654201847,120.12104029202601,121.1157322920044,121.1157322920044,121.38877358403988,z,1,0.2690195409813896,None,,,,,4,001,2025-10-01_12h55.44.841, Motor Sequence Learning,,2025.1.1,None,2025-10-01 12h55.51.742936 +0530,
-50,x,52,0,13,x,1,0.30366737401345745,None,13,0,52,0,,,,,121.39827599999262,,121.38929370901315,121.39827599999262,122.38786987500498,122.38786987500498,122.38786987500498,122.38786987500498,122.38786987500498,123.38795854203636,123.38795854203636,123.70099154202035,x,1,0.30366737401345745,None,,,,,4,001,2025-10-01_12h55.44.841, Motor Sequence Learning,,2025.1.1,None,2025-10-01 12h55.51.742936 +0530,
150,v,53,1,13,v,1,0.2937513330252841,None,13,1,53,1,,,,,123.71063554199645,,123.70168316701893,123.71063554199645,124.69885995902587,124.69885995902587,124.69885995902587,124.69885995902587,124.70329274999676,125.69888745900244,125.69888745900244,126.00058220903156,v,1,0.2937513330252841,None,,,,,4,001,2025-10-01_12h55.44.841, Motor Sequence Learning,,2025.1.1,None,2025-10-01 12h55.51.742936 +0530,
50,c,54,2,13,c,1,0.26349995797500014,None,13,2,54,2,,,,,126.01028612500522,,126.0012691669981,126.01028612500522,126.99890045903157,126.99890045903157,126.99890045903157,126.99890045903157,127.00386104203062,127.99901679198956,127.99901679198956,128.2674140839954,c,1,0.26349995797500014,None,,,,,4,001,2025-10-01_12h55.44.841, Motor Sequence Learning,,2025.1.1,None,2025-10-01 12h55.51.742936 +0530,
-150,z,55,3,13,z,1,0.3822037909994833,None,13,3,55,3,,,,,128.2767797090346,,128.26796604203992,128.2767797090346,129.2655620840378,129.2655620840378,129.2655620840378,129.2655620840378,129.27040762500837,130.26539654203225,130.26539654203225,130.65080000000307,z,1,0.3822037909994833,None,,,,,4,001,2025-10-01_12h55.44.841, Motor Sequence Learning,,2025.1.1,None,2025-10-01 12h55.51.742936 +0530,
-50,x,56,0,14,x,1,0.41027570801088586,None,14,0,56,0,,,,,130.65995591698447,,130.65140395902563,130.65995591698447,131.64900325000053,131.64900325000053,131.64900325000053,131.64900325000053,131.65459783398546,132.64887408399954,132.64887408399954,133.06716187502025,x,1,0.41027570801088586,None,,,,,4,001,2025-10-01_12h55.44.841, Motor Sequence Learning,,2025.1.1,None,2025-10-01 12h55.51.742936 +0530,
150,v,57,1,14,v,1,0.3255057909991592,None,14,1,57,1,,,,,133.0768149170326,,133.0678413750138,133.0768149170326,134.06561595899984,134.06561595899984,134.06561595899984,134.06561595899984,134.07146516698413,135.06543654203415,135.06543654203415,135.4009044590057,v,1,0.3255057909991592,None,,,,,4,001,2025-10-01_12h55.44.841, Motor Sequence Learning,,2025.1.1,None,2025-10-01 12h55.51.742936 +0530,
50,c,58,2,14,c,1,0.24750574899371713,None,14,2,58,2,,,,,135.4103830420063,,135.40156270901207,135.4103830420063,136.39894450001884,136.39894450001884,136.39894450001884,136.39894450001884,136.403945417027,137.398873750004,137.398873750004,137.65055041701999,c,1,0.24750574899371713,None,,,,,4,001,2025-10-01_12h55.44.841, Motor Sequence Learning,,2025.1.1,None,2025-10-01 12h55.51.742936 +0530,
-150,z,59,3,14,z,1,0.28441354096867144,None,14,3,59,3,,,,,137.65997983398847,,137.65117095899768,137.65997983398847,138.6487893750309,138.6487893750309,138.6487893750309,138.6487893750309,138.65294987498783,139.6489056670107,139.6489056670107,139.93855791701935,z,1,0.28441354096867144,None,,,,,4,001,2025-10-01_12h55.44.841, Motor Sequence Learning,,2025.1.1,None,2025-10-01 12h55.51.742936 +0530,
-50,x,60,0,15,x,1,0.35748866701032966,None,15,0,60,0,,,,,139.9481239169836,,139.93908754200675,139.9481239169836,140.93773954198696,140.93773954198696,140.93773954198696,140.93773954198696,140.93773954198696,141.93780529202195,141.93780529202195,142.3008724169922,x,1,0.35748866701032966,None,,,,,4,001,2025-10-01_12h55.44.841, Motor Sequence Learning,,2025.1.1,None,2025-10-01 12h55.51.742936 +0530,
150,v,61,1,15,v,1,0.40745737397810444,None,15,1,61,1,,,,,142.30943583400222,,142.30141625000397,142.30943583400222,143.2988921669894,143.2988921669894,143.2988921669894,143.2988921669894,143.30450541700702,144.29877445899183,144.29877445899183,144.71723391703563,v,1,0.40745737397810444,None,,,,,4,001,2025-10-01_12h55.44.841, Motor Sequence Learning,,2025.1.1,None,2025-10-01 12h55.51.742936 +0530,
50,c,62,2,15,c,1,0.2337976249982603,None,15,2,62,2,,,,,144.72629700001562,,144.71780883398606,144.72629700001562,145.71554612502223,145.71554612502223,145.71554612502223,145.71554612502223,145.72030437499052,146.7154282089905,146.7154282089905,146.95545362500707,c,1,0.2337976249982603,None,,,,,4,001,2025-10-01_12h55.44.841, Motor Sequence Learning,,2025.1.1,None,2025-10-01 12h55.51.742936 +0530,
-150,z,63,3,15,z,1,0.31430295802420005,None,15,3,63,3,,,,,146.96484045899706,,146.95596520899562,146.96484045899706,147.95442545902915,147.95442545902915,147.95442545902915,147.95442545902915,147.95442545902915,148.95522504200926,148.95522504200926,149.27083870902425,z,1,0.31430295802420005,None,,,,,4,001,2025-10-01_12h55.44.841, Motor Sequence Learning,,2025.1.1,None,2025-10-01 12h55.51.742936 +0530,
-50,x,64,0,16,x,1,0.274744207970798,None,16,0,64,0,,,,,149.28151733399136,,149.2713520420366,149.28151733399136,150.27097250003135,150.27097250003135,150.27097250003135,150.27097250003135,150.27097250003135,151.271314624988,151.271314624988,151.5501524170395,x,1,0.274744207970798,None,,,,,4,001,2025-10-01_12h55.44.841, Motor Sequence Learning,,2025.1.1,None,2025-10-01 12h55.51.742936 +0530,
150,v,65,1,16,v,1,0.4692504580016248,None,16,1,65,1,,,,,151.5593230840168,,151.55071454198333,151.5593230840168,152.54874479200225,152.54874479200225,152.54874479200225,152.54874479200225,152.55297654203605,153.54884441703325,153.54884441703325,154.02150875004008,v,1,0.4692504580016248,None,,,,,4,001,2025-10-01_12h55.44.841, Motor Sequence Learning,,2025.1.1,None,2025-10-01 12h55.51.742936 +0530,
50,c,66,2,16,c,1,0.30258854100247845,None,16,2,66,2,,,,,154.03173325001262,,154.0218701250269,154.03173325001262,155.0209416670259,155.0209416670259,155.0209416670259,155.0209416670259,155.0209416670259,156.0154094999889,156.0154094999889,156.32334241701756,c,1,0.30258854100247845,None,,,,,4,001,2025-10-01_12h55.44.841, Motor Sequence Learning,,2025.1.1,None,2025-10-01 12h55.51.742936 +0530,
-150,z,67,3,16,z,1,0.26831712399143726,None,16,3,67,3,,,,,156.33560475002741,,156.32391316699795,156.33560475002741,157.32172624999657,157.32172624999657,157.32172624999657,157.32172624999657,157.33218787499936,158.32160866702907,158.32160866702907,158.60042520903517,z,1,0.26831712399143726,None,,,,,4,001,2025-10-01_12h55.44.841, Motor Sequence Learning,,2025.1.1,None,2025-10-01 12h55.51.742936 +0530,
-50,x,68,0,17,x,1,0.3021124160150066,None,17,0,68,0,,,,,158.6103573340224,,158.60115345899248,158.6103573340224,159.59874529199442,159.59874529199442,159.59874529199442,159.59874529199442,159.6048343750299,160.59877512499224,160.59877512499224,160.9058823750238,x,1,0.3021124160150066,None,,,,,4,001,2025-10-01_12h55.44.841, Motor Sequence Learning,,2025.1.1,None,2025-10-01 12h55.51.742936 +0530,
150,v,69,1,17,v,1,0.591732208034955,None,17,1,69,1,,,,,160.91519737499766,,160.90635649999604,160.91519737499766,161.90431075001834,161.90431075001834,161.90431075001834,161.90431075001834,161.90431075001834,162.90507258399157,162.90507258399157,163.50049583398504,v,1,0.591732208034955,None,,,,,4,001,2025-10-01_12h55.44.841, Motor Sequence Learning,,2025.1.1,None,2025-10-01 12h55.51.742936 +0530,
50,c,70,2,17,c,1,0.7540177080081776,None,17,2,70,2,,,,,163.5100918340031,,163.50105399999302,163.5100918340031,164.49887991702417,164.49887991702417,164.49887991702417,164.49887991702417,164.50364420900587,165.49875766702462,165.49875766702462,166.2544757919968,c,1,0.7540177080081776,None,,,,,4,001,2025-10-01_12h55.44.841, Motor Sequence Learning,,2025.1.1,None,2025-10-01 12h55.51.742936 +0530,
-150,z,71,3,17,z,1,0.3730377910542302,None,17,3,71,3,,,,,166.26555879198713,,166.254885250004,166.26555879198713,167.25433483399684,167.25433483399684,167.25433483399684,167.25433483399684,167.25433483399684,168.25465845898725,168.25465845898725,168.63384208403295,z,1,0.3730377910542302,None,,,,,4,001,2025-10-01_12h55.44.841, Motor Sequence Learning,,2025.1.1,None,2025-10-01 12h55.51.742936 +0530,
-50,x,72,0,18,x,1,0.3944923329981975,None,18,0,72,0,,,,,168.64236770902062,,168.63445350003894,168.64236770902062,169.63218254200183,169.63218254200183,169.63218254200183,169.63218254200183,169.63772829202935,170.63219870900502,170.63219870900502,171.03388958401047,x,1,0.3944923329981975,None,,,,,4,001,2025-10-01_12h55.44.841, Motor Sequence Learning,,2025.1.1,None,2025-10-01 12h55.51.742936 +0530,
150,v,73,1,18,v,1,0.32552666595438495,None,18,1,73,1,,,,,171.04217241698643,,171.03441870899405,171.04217241698643,172.03214458399452,172.03214458399452,172.03214458399452,172.03214458399452,172.03672475001076,173.0322354590171,173.0322354590171,173.36727616703138,v,1,0.32552666595438495,None,,,,,4,001,2025-10-01_12h55.44.841, Motor Sequence Learning,,2025.1.1,None,2025-10-01 12h55.51.742936 +0530,
50,c,74,2,18,c,1,0.43028833298012614,None,18,2,74,2,,,,,173.37596754200058,,173.3679040420102,173.37596754200058,174.36545241699787,174.36545241699787,174.36545241699787,174.36545241699787,174.36967983399518,175.3653540420346,175.3653540420346,175.79977425001562,c,1,0.43028833298012614,None,,,,,4,001,2025-10-01_12h55.44.841, Motor Sequence Learning,,2025.1.1,None,2025-10-01 12h55.51.742936 +0530,
-150,z,75,3,18,z,1,0.4258534160326235,None,18,3,75,3,,,,,175.80273887503427,,175.8001468339935,175.80273887503427,176.79873891698662,176.79873891698662,176.79873891698662,176.79873891698662,176.79873891698662,177.79882487503346,177.79882487503346,178.2337067089975,z,1,0.4258534160326235,None,,,,,4,001,2025-10-01_12h55.44.841, Motor Sequence Learning,,2025.1.1,None,2025-10-01 12h55.51.742936 +0530,
-50,x,76,0,19,x,1,0.37041966599645093,None,19,0,76,0,,,,,178.24245316704037,,178.23435241699917,178.24245316704037,179.23216225003125,179.23216225003125,179.23216225003125,179.23216225003125,179.23714762501186,180.23202487500384,180.23202487500384,180.60490779200336,x,1,0.37041966599645093,None,,,,,4,001,2025-10-01_12h55.44.841, Motor Sequence Learning,,2025.1.1,None,2025-10-01 12h55.51.742936 +0530,
150,v,77,1,19,v,1,0.28245699900435284,None,19,1,77,1,,,,,180.61462420900352,,180.605427084025,180.61462420900352,181.60464825003874,181.60464825003874,181.60464825003874,181.60464825003874,181.60464825003874,182.60497383400798,182.60497383400798,182.88881637499435,v,1,0.28245699900435284,None,,,,,4,001,2025-10-01_12h55.44.841, Motor Sequence Learning,,2025.1.1,None,2025-10-01 12h55.51.742936 +0530,
50,c,78,2,19,c,1,0.34346470795571804,None,19,2,78,2,,,,,182.89790083403932,,182.8893316250178,182.89790083403932,183.88725374999922,183.88725374999922,183.88725374999922,183.88725374999922,183.88725374999922,184.88784195901826,184.88784195901826,185.2338443340268,c,1,0.34346470795571804,None,,,,,4,001,2025-10-01_12h55.44.841, Motor Sequence Learning,,2025.1.1,None,2025-10-01 12h55.51.742936 +0530,
-150,z,79,3,19,z,1,0.5402952909935266,None,19,3,79,3,,,,,185.2432486669859,,185.23442741698818,185.2432486669859,186.23206983401906,186.23206983401906,186.23206983401906,186.23206983401906,186.23769283399452,187.2320576250204,187.2320576250204,187.78435750002973,z,1,0.5402952909935266,None,,,,,4,001,2025-10-01_12h55.44.841, Motor Sequence Learning,,2025.1.1,None,2025-10-01 12h55.51.742936 +0530,
-50,x,80,0,20,x,1,0.40322483296040446,None,20,0,80,0,,,,,187.79390387499006,,187.7850442500203,187.79390387499006,188.78230783401523,188.78230783401523,188.78230783401523,188.78230783401523,188.78770687500946,189.7821619590395,189.7821619590395,190.1885515419999,x,1,0.40322483296040446,None,,,,,4,001,2025-10-01_12h55.44.841, Motor Sequence Learning,,2025.1.1,None,2025-10-01 12h55.51.742936 +0530,
150,v,81,1,20,v,1,0.5159341660328209,None,20,1,81,1,,,,,190.19804899999872,,190.18906620901544,190.19804899999872,191.1876549590379,191.1876549590379,191.1876549590379,191.1876549590379,191.1876549590379,192.1882896249881,192.1882896249881,192.71718658402096,v,1,0.5159341660328209,None,,,,,4,001,2025-10-01_12h55.44.841, Motor Sequence Learning,,2025.1.1,None,2025-10-01 12h55.51.742936 +0530,
50,c,82,2,20,c,1,0.44257370801642537,None,20,2,82,2,,,,,192.72664404200623,,192.71783304202836,192.72664404200623,193.7154507500236,193.7154507500236,193.7154507500236,193.7154507500236,193.71996025001863,194.7155854590237,194.7155854590237,195.167430875008,c,1,0.44257370801642537,None,,,,,4,001,2025-10-01_12h55.44.841, Motor Sequence Learning,,2025.1.1,None,2025-10-01 12h55.51.742936 +0530,
-150,z,83,3,20,z,1,0.5316667499719188,None,20,3,83,3,,,,,195.17694366700016,,195.16823154198937,195.17694366700016,196.16553833399666,196.16553833399666,196.16553833399666,196.16553833399666,196.17074333399069,197.16542295902036,197.16542295902036,197.7004315420054,z,1,0.5316667499719188,None,,,,,4,001,2025-10-01_12h55.44.841, Motor Sequence Learning,,2025.1.1,None,2025-10-01 12h55.51.742936 +0530,
-50,x,84,0,21,x,1,0.498289333016146,None,21,0,84,0,,,,,197.70940812502522,,197.70096587500302,197.70940812502522,198.698870000022,198.698870000022,198.698870000022,198.698870000022,198.70411225000862,199.69870033400366,199.69870033400366,200.20041941700038,x,1,0.498289333016146,None,,,,,4,001,2025-10-01_12h55.44.841, Motor Sequence Learning,,2025.1.1,None,2025-10-01 12h55.51.742936 +0530,
150,v,85,1,21,v,1,0.46240254200529307,None,21,1,85,1,,,,,200.20933579199482,,200.20095562498318,200.20933579199482,201.19877716701012,201.19877716701012,201.19877716701012,201.19877716701012,201.20372412499273,202.1986726670293,202.1986726670293,202.66710404201876,v,1,0.46240254200529307,None,,,,,4,001,2025-10-01_12h55.44.841, Motor Sequence Learning,,2025.1.1,None,2025-10-01 12h55.51.742936 +0530,
50,c,86,2,21,c,1,0.3387196250259876,None,21,2,86,2,,,,,202.67568554199534,,202.66766745899804,202.67568554199534,203.66531820903765,203.66531820903765,203.66531820903765,203.66531820903765,203.67066845903173,204.66530491702724,204.66530491702724,205.00656420900486,c,1,0.3387196250259876,None,,,,,4,001,2025-10-01_12h55.44.841, Motor Sequence Learning,,2025.1.1,None,2025-10-01 12h55.51.742936 +0530,
-150,z,87,3,21,z,1,0.27953191596316174,None,21,3,87,3,,,,,205.01516345900018,,205.00708995899186,205.01516345900018,206.00351354200393,206.00351354200393,206.00351354200393,206.00351354200393,206.00351354200393,207.00442620902322,207.00442620902322,207.28912887501065,z,1,0.27953191596316174,None,,,,,4,001,2025-10-01_12h55.44.841, Motor Sequence Learning,,2025.1.1,None,2025-10-01 12h55.51.742936 +0530,
-50,x,88,0,22,x,1,0.34163195797009394,None,22,0,88,0,,,,,207.29816125001526,,207.28965516702738,207.29816125001526,208.28735379199497,208.28735379199497,208.28735379199497,208.28735379199497,208.28735379199497,209.28817537502619,209.28817537502619,209.63400925003225,x,1,0.34163195797009394,None,,,,,4,001,2025-10-01_12h55.44.841, Motor Sequence Learning,,2025.1.1,None,2025-10-01 12h55.51.742936 +0530,
150,v,89,1,22,v,1,0.2908244169666432,None,22,1,89,1,,,,,209.64306987501914,,209.63456329202745,209.64306987501914,210.63213762501255,210.63213762501255,210.63213762501255,210.63213762501255,210.6373003339977,211.63199008401716,211.63199008401716,211.93377862503985,v,1,0.2908244169666432,None,,,,,4,001,2025-10-01_12h55.44.841, Motor Sequence Learning,,2025.1.1,None,2025-10-01 12h55.51.742936 +0530,
50,c,90,2,22,c,1,0.2368239579955116,None,22,2,90,2,,,,,211.94251808401896,,211.934347041999,211.94251808401896,212.9320792920189,212.9320792920189,212.9320792920189,212.9320792920189,212.93726783402963,213.9319099590066,213.9319099590066,214.17109904199606,c,1,0.2368239579955116,None,,,,,4,001,2025-10-01_12h55.44.841, Motor Sequence Learning,,2025.1.1,None,2025-10-01 12h55.51.742936 +0530,
-150,z,91,3,22,z,1,0.27668391598854214,None,22,3,91,3,,,,,214.18129191698972,,214.17146716703428,214.18129191698972,215.1715753750177,215.1715753750177,215.1715753750177,215.1715753750177,215.1715753750177,216.171060667024,216.171060667024,216.45075783401262,z,1,0.27668391598854214,None,,,,,4,001,2025-10-01_12h55.44.841, Motor Sequence Learning,,2025.1.1,None,2025-10-01 12h55.51.742936 +0530,
-50,x,92,0,23,x,1,0.5409500409732573,None,23,0,92,0,,,,,216.4616673749988,,216.4514327920042,216.4616673749988,217.44874208403053,217.44874208403053,217.44874208403053,217.44874208403053,217.45375845901435,218.44862729200395,218.44862729200395,219.0005143340095,x,1,0.5409500409732573,None,,,,,4,001,2025-10-01_12h55.44.841, Motor Sequence Learning,,2025.1.1,None,2025-10-01 12h55.51.742936 +0530,
150,v,93,1,23,v,1,0.24105087498901412,None,23,1,93,1,,,,,219.0106894170167,,219.00123624998378,219.0106894170167,219.9987099590362,219.9987099590362,219.9987099590362,219.9987099590362,220.004005875031,220.9986154169892,220.9986154169892,221.24962941702688,v,1,0.24105087498901412,None,,,,,4,001,2025-10-01_12h55.44.841, Motor Sequence Learning,,2025.1.1,None,2025-10-01 12h55.51.742936 +0530,
50,c,94,2,23,c,1,0.2955882499809377,None,23,2,94,2,,,,,221.25642220902955,,221.25000095902942,221.25642220902955,222.2375987090054,222.2375987090054,222.2375987090054,222.2375987090054,222.25325125001837,223.23797095898772,223.23797095898772,223.5397616670234,c,1,0.2955882499809377,None,,,,,4,001,2025-10-01_12h55.44.841, Motor Sequence Learning,,2025.1.1,None,2025-10-01 12h55.51.742936 +0530,
-150,z,95,3,23,z,1,0.2764459579484537,None,23,3,95,3,,,,,223.56565416703233,,223.54027612501523,223.56565416703233,224.53734795900527,224.53734795900527,224.53734795900527,224.53734795900527,224.55391812499147,225.53810270898975,225.53810270898975,225.8170248750248,z,1,0.2764459579484537,None,,,,,4,001,2025-10-01_12h55.44.841, Motor Sequence Learning,,2025.1.1,None,2025-10-01 12h55.51.742936 +0530,
-50,x,96,0,24,x,1,0.348164499970153,None,24,0,96,0,,,,,225.82749916700413,,225.81761620903853,225.82749916700413,226.8151592920185,226.8151592920185,226.8151592920185,226.8151592920185,226.81974787503714,227.81527733401163,227.81527733401163,228.16704800003208,x,1,0.348164499970153,None,,,,,4,001,2025-10-01_12h55.44.841, Motor Sequence Learning,,2025.1.1,None,2025-10-01 12h55.51.742936 +0530,
150,v,97,1,24,v,1,0.29302300000563264,None,24,1,97,1,,,,,228.1766540420358,,228.16765354201198,228.1766540420358,229.16534679202596,229.16534679202596,229.16534679202596,229.16534679202596,229.17032562498935,230.16532091703266,230.16532091703266,230.46734350000042,v,1,0.29302300000563264,None,,,,,4,001,2025-10-01_12h55.44.841, Motor Sequence Learning,,2025.1.1,None,2025-10-01 12h55.51.742936 +0530,
50,c,98,2,24,c,1,0.2650104580097832,None,24,2,98,2,,,,,230.47693120903568,,230.46814787498442,230.47693120903568,231.46532166702673,231.46532166702673,231.46532166702673,231.46532166702673,231.4705202920013,232.46534254204016,232.46534254204016,232.73414025001694,c,1,0.2650104580097832,None,,,,,4,001,2025-10-01_12h55.44.841, Motor Sequence Learning,,2025.1.1,None,2025-10-01 12h55.51.742936 +0530,
-150,z,99,3,24,z,1,0.29018937499495223,None,24,3,99,3,,,,,232.74361225002212,,232.73483383399434,232.74361225002212,233.7319299170049,233.7319299170049,233.7319299170049,233.7319299170049,233.7371869169874,234.7320619589882,234.7320619589882,235.03368066699477,z,1,0.29018937499495223,None,,,,,4,001,2025-10-01_12h55.44.841, Motor Sequence Learning,,2025.1.1,None,2025-10-01 12h55.51.742936 +0530,
-50,x,100,0,25,x,1,0.09339404094498605,None,25,0,100,0,,,,,235.0430824169889,,235.0343692090246,235.0430824169889,236.03208566701505,236.03208566701505,236.03208566701505,236.03208566701505,236.03707770898473,237.03196412499528,237.03196412499528,237.13414158398518,x,1,0.09339404094498605,None,,,,,4,001,2025-10-01_12h55.44.841, Motor Sequence Learning,,2025.1.1,None,2025-10-01 12h55.51.742936 +0530,
150,v,101,1,25,v,1,0.29341333301272243,None,25,1,101,1,,,,,237.14343674998963,,237.13476358400658,237.14343674998963,238.1319844170357,238.1319844170357,238.1319844170357,238.1319844170357,238.13694208400557,239.13189150003018,239.13189150003018,239.43363904202124,v,1,0.29341333301272243,None,,,,,4,001,2025-10-01_12h55.44.841, Motor Sequence Learning,,2025.1.1,None,2025-10-01 12h55.51.742936 +0530,
50,c,102,2,25,c,1,0.4640440000221133,None,25,2,102,2,,,,,239.44281433400465,,239.43419133400312,239.44281433400465,240.43217475002166,240.43217475002166,240.43217475002166,240.43217475002166,240.43758616701234,241.4320224589901,241.4320224589901,241.90081966703292,c,1,0.4640440000221133,None,,,,,4,001,2025-10-01_12h55.44.841, Motor Sequence Learning,,2025.1.1,None,2025-10-01 12h55.51.742936 +0530,
-150,z,103,3,25,z,1,0.2665854159859009,None,25,3,103,3,,,,,241.91066400002455,,241.90165262500523,241.91066400002455,242.8985769590363,242.8985769590363,242.8985769590363,242.8985769590363,242.90402416698635,243.89870958402753,243.89870958402753,244.16742133401567,z,1,0.2665854159859009,None,,,,,4,001,2025-10-01_12h55.44.841, Motor Sequence Learning,,2025.1.1,None,2025-10-01 12h55.51.742936 +0530,
-50,x,104,0,26,x,1,0.2467713329824619,None,26,0,104,0,,,,,244.1767197920126,,244.16794445901178,244.1767197920126,245.16525770898443,245.16525770898443,245.16525770898443,245.16525770898443,245.16983475000598,246.16535479202867,246.16535479202867,246.41701991698937,x,1,0.2467713329824619,None,,,,,4,001,2025-10-01_12h55.44.841, Motor Sequence Learning,,2025.1.1,None,2025-10-01 12h55.51.742936 +0530,
150,v,105,1,26,v,1,0.3137172079877928,None,26,1,105,1,,,,,246.42629795899848,,246.41758599999594,246.42629795899848,247.41541524999775,247.41541524999775,247.41541524999775,247.41541524999775,247.42106274998514,248.41520804201718,248.41520804201718,248.73406650003744,v,1,0.3137172079877928,None,,,,,4,001,2025-10-01_12h55.44.841, Motor Sequence Learning,,2025.1.1,None,2025-10-01 12h55.51.742936 +0530,
50,c,106,2,26,c,1,0.2579097079578787,None,26,2,106,2,,,,,248.7437652919907,,248.73489045898896,248.7437652919907,249.73182433401234,249.73182433401234,249.73182433401234,249.73182433401234,249.73704099998577,250.73198041704018,250.73198041704018,251.0004108750145,c,1,0.2579097079578787,None,,,,,4,001,2025-10-01_12h55.44.841, Motor Sequence Learning,,2025.1.1,None,2025-10-01 12h55.51.742936 +0530,
-150,z,107,3,26,z,1,0.28431033296510577,None,26,3,107,3,,,,,251.0099689590279,,251.0011109589832,251.0099689590279,251.9985755420057,251.9985755420057,251.9985755420057,251.9985755420057,252.00371354201343,252.99866033403669,252.99866033403669,253.28904212499037,z,1,0.28431033296510577,None,,,,,4,001,2025-10-01_12h55.44.841, Motor Sequence Learning,,2025.1.1,None,2025-10-01 12h55.51.742936 +0530,
-50,x,108,0,27,x,1,0.27725691598607227,None,27,0,108,0,,,,,253.29805500002112,,253.28957520902622,253.29805500002112,254.2884325000341,254.2884325000341,254.2884325000341,254.2884325000341,254.2884325000341,255.28759299998637,255.28759299998637,255.56716400000732,x,1,0.27725691598607227,None,,,,,4,001,2025-10-01_12h55.44.841, Motor Sequence Learning,,2025.1.1,None,2025-10-01 12h55.51.742936 +0530,
150,v,109,1,27,v,1,0.2786093329777941,None,27,1,109,1,,,,,255.57679550000466,,255.5678314170218,255.57679550000466,256.5653010419919,256.5653010419919,256.5653010419919,256.5653010419919,256.5695305420086,257.5652734169853,257.5652734169853,257.85014370898716,v,1,0.2786093329777941,None,,,,,4,001,2025-10-01_12h55.44.841, Motor Sequence Learning,,2025.1.1,None,2025-10-01 12h55.51.742936 +0530,
50,c,110,2,27,c,1,0.2662198330508545,None,27,2,110,2,,,,,257.8572901249863,,257.8505790840136,257.8572901249863,258.84863925003447,258.84863925003447,258.84863925003447,258.84863925003447,258.8545265420107,259.84853445901535,259.84853445901535,260.11747854202986,c,1,0.2662198330508545,None,,,,,4,001,2025-10-01_12h55.44.841, Motor Sequence Learning,,2025.1.1,None,2025-10-01 12h55.51.742936 +0530,
-150,z,111,3,27,z,1,0.3364745000144467,None,27,3,111,3,,,,,260.1263166249846,,260.1181449590367,260.1263166249846,261.11533729202347,261.11533729202347,261.11533729202347,261.11533729202347,261.1205372090335,262.1152470000088,262.1152470000088,262.455198791984,z,1,0.3364745000144467,None,,,,,4,001,2025-10-01_12h55.44.841, Motor Sequence Learning,,2025.1.1,None,2025-10-01 12h55.51.742936 +0530,
-50,x,112,0,28,x,1,0.5573925829958171,None,28,0,112,0,,,,,262.46444141701795,,262.4557136250078,262.46444141701795,263.45453595899744,263.45453595899744,263.45453595899744,263.45453595899744,263.45453595899744,264.45444654201856,264.45444654201856,265.0174772919854,x,1,0.5573925829958171,None,,,,,4,001,2025-10-01_12h55.44.841, Motor Sequence Learning,,2025.1.1,None,2025-10-01 12h55.51.742936 +0530,
150,v,113,1,28,v,1,0.17719395802123472,None,28,1,113,1,,,,,265.026522500033,,265.018314749992,265.026522500033,266.0152892920305,266.0152892920305,266.0152892920305,266.0152892920305,266.0198704589857,267.0154968749848,267.0154968749848,267.2004377919948,v,1,0.17719395802123472,None,,,,,4,001,2025-10-01_12h55.44.841, Motor Sequence Learning,,2025.1.1,None,2025-10-01 12h55.51.742936 +0530,
50,c,114,2,28,c,1,0.2787900829571299,None,28,2,114,2,,,,,267.20876437501283,,267.20097416703356,267.20876437501283,268.19864250003593,268.19864250003593,268.19864250003593,268.19864250003593,268.202843459032,269.1987802500371,269.1987802500371,269.4835609170259,c,1,0.2787900829571299,None,,,,,4,001,2025-10-01_12h55.44.841, Motor Sequence Learning,,2025.1.1,None,2025-10-01 12h55.51.742936 +0530,
-150,z,115,3,28,z,1,0.24663941597100347,None,28,3,115,3,,,,,269.4931884169928,,269.4841921670013,269.4931884169928,270.4818852090393,270.4818852090393,270.4818852090393,270.4818852090393,270.4869783340255,271.4818885840359,271.4818885840359,271.7336518749944,z,1,0.24663941597100347,None,,,,,4,001,2025-10-01_12h55.44.841, Motor Sequence Learning,,2025.1.1,None,2025-10-01 12h55.51.742936 +0530,
-50,x,116,0,29,x,1,0.24046162504237145,None,29,0,116,0,,,,,271.7421339590219,,271.7342468749848,271.7421339590219,272.7320100000361,272.7320100000361,272.7320100000361,272.7320100000361,272.7372264590231,273.7319451670046,273.7319451670046,273.9836632920196,x,1,0.24046162504237145,None,,,,,4,001,2025-10-01_12h55.44.841, Motor Sequence Learning,,2025.1.1,None,2025-10-01 12h55.51.742936 +0530,
150,v,117,1,29,v,1,0.20250287500675768,None,29,1,117,1,,,,,273.99215795903,,273.9842232920346,273.99215795903,274.98186283401446,274.98186283401446,274.98186283401446,274.98186283401446,274.9862364589935,275.9819204999949,275.9819204999949,276.18664687499404,v,1,0.20250287500675768,None,,,,,4,001,2025-10-01_12h55.44.841, Motor Sequence Learning,,2025.1.1,None,2025-10-01 12h55.51.742936 +0530,
50,c,118,2,29,c,1,0.2826017909683287,None,29,2,118,2,,,,,276.1985260419897,,276.18700312502915,276.1985260419897,277.18769308400806,277.18769308400806,277.18769308400806,277.18769308400806,277.18769308400806,278.18178804201307,278.18178804201307,278.46699766698293,c,1,0.2826017909683287,None,,,,,4,001,2025-10-01_12h55.44.841, Motor Sequence Learning,,2025.1.1,None,2025-10-01 12h55.51.742936 +0530,
-150,z,119,3,29,z,1,0.2381993749877438,None,29,3,119,3,,,,,278.47595412499504,,278.46758079202846,278.47595412499504,279.4651771670324,279.4651771670324,279.4651771670324,279.4651771670324,279.4703865420306,280.4652305000345,280.4652305000345,280.70491958403727,z,1,0.2381993749877438,None,,,,,4,001,2025-10-01_12h55.44.841, Motor Sequence Learning,,2025.1.1,None,2025-10-01 12h55.51.742936 +0530,
-50,x,120,0,30,x,1,0.2890288740163669,None,30,0,120,0,,,,,280.7144103340106,,280.7054145000293,280.7144103340106,281.70434325002134,281.70434325002134,281.70434325002134,281.70434325002134,281.70434325002134,282.7044120840146,282.7044120840146,283.00054345902754,x,1,0.2890288740163669,None,,,,,4,001,2025-10-01_12h55.44.841, Motor Sequence Learning,,2025.1.1,None,2025-10-01 12h55.51.742936 +0530,
150,v,121,1,30,v,1,0.4917825409793295,None,30,1,121,1,,,,,283.00930258398876,,283.00107770902105,283.00930258398876,283.99852054199437,283.99852054199437,283.99852054199437,283.99852054199437,284.00354141701246,284.99843120900914,284.99843120900914,285.4999632500112,v,1,0.4917825409793295,None,,,,,4,001,2025-10-01_12h55.44.841, Motor Sequence Learning,,2025.1.1,None,2025-10-01 12h55.51.742936 +0530,
50,c,122,2,30,c,1,0.30371462495531887,None,30,2,122,2,,,,,285.50703000003705,,285.50043950002873,285.50703000003705,286.4984374170308,286.4984374170308,286.4984374170308,286.4984374170308,286.50368408398936,287.49850308400346,287.49850308400346,287.80489512503846,c,1,0.30371462495531887,None,,,,,4,001,2025-10-01_12h55.44.841, Motor Sequence Learning,,2025.1.1,None,2025-10-01 12h55.51.742936 +0530,
-150,z,123,3,30,z,1,0.3324278329964727,None,30,3,123,3,,,,,287.8144591249875,,287.80538941698615,287.8144591249875,288.7988030000124,288.7988030000124,288.7988030000124,288.7988030000124,288.8044515000074,289.8036829170305,289.8036829170305,290.1385407919879,z,1,0.3324278329964727,None,,,,,4,001,2025-10-01_12h55.44.841, Motor Sequence Learning,,2025.1.1,None,2025-10-01 12h55.51.742936 +0530,
-50,x,124,0,31,x,1,0.36467941699083894,None,31,0,124,0,,,,,290.1479308340349,,290.1390633340343,290.1479308340349,291.1385487500229,291.1385487500229,291.1385487500229,291.1385487500229,291.1385487500229,292.1378207090311,292.1378207090311,292.5055389170302,x,1,0.36467941699083894,None,,,,,4,001,2025-10-01_12h55.44.841, Motor Sequence Learning,,2025.1.1,None,2025-10-01 12h55.51.742936 +0530,
150,v,125,1,31,v,1,0.30738200002815574,None,31,1,125,1,,,,,292.51473100000294,,292.50606141699245,292.51473100000294,293.5051427090075,293.5051427090075,293.5051427090075,293.5051427090075,293.5051427090075,294.504741584009,294.504741584009,294.81636624998646,v,1,0.30738200002815574,None,,,,,4,001,2025-10-01_12h55.44.841, Motor Sequence Learning,,2025.1.1,None,2025-10-01 12h55.51.742936 +0530,
50,c,126,2,31,c,1,0.34186012495774776,None,31,2,126,2,,,,,294.8234648749931,,294.81688187498366,294.8234648749931,295.8153552089934,295.8153552089934,295.8153552089934,295.8153552089934,295.82072104199324,296.81508299999405,296.81508299999405,297.16688375000376,c,1,0.34186012495774776,None,,,,,4,001,2025-10-01_12h55.44.841, Motor Sequence Learning,,2025.1.1,None,2025-10-01 12h55.51.742936 +0530,
-150,z,127,3,31,z,1,0.30886612500762567,None,31,3,127,3,,,,,297.1751499589882,,297.16741908399854,297.1751499589882,298.1652382920147,298.1652382920147,298.1652382920147,298.1652382920147,298.1702329170075,299.1650992500363,299.1650992500363,299.4841258340166,z,1,0.30886612500762567,None,,,,,4,001,2025-10-01_12h55.44.841, Motor Sequence Learning,,2025.1.1,None,2025-10-01 12h55.51.742936 +0530,
-50,x,128,0,32,x,1,0.29161575000034645,None,32,0,128,0,,,,,299.49249908403726,,299.4848296249984,299.49249908403726,300.48198570898967,300.48198570898967,300.48198570898967,300.48198570898967,300.48693283402827,301.48228045902215,301.48228045902215,301.7834916670108,x,1,0.29161575000034645,None,,,,,4,001,2025-10-01_12h55.44.841, Motor Sequence Learning,,2025.1.1,None,2025-10-01 12h55.51.742936 +0530,
150,v,129,1,32,v,1,0.28501545800827444,None,32,1,129,1,,,,,301.79079483402893,,301.78395095898304,301.79079483402893,302.7818395840004,302.7818395840004,302.7818395840004,302.7818395840004,302.78722070902586,303.78178866702365,303.78178866702365,304.07048404199304,v,1,0.28501545800827444,None,,,,,4,001,2025-10-01_12h55.44.841, Motor Sequence Learning,,2025.1.1,None,2025-10-01 12h55.51.742936 +0530,
50,c,130,2,32,c,1,0.2739525409997441,None,32,2,130,2,,,,,304.0818629169953,,304.07088800001657,304.0818629169953,305.07173224998405,305.07173224998405,305.07173224998405,305.07173224998405,305.07173224998405,306.0709162920248,306.0709162920248,306.35003220901126,c,1,0.2739525409997441,None,,,,,4,001,2025-10-01_12h55.44.841, Motor Sequence Learning,,2025.1.1,None,2025-10-01 12h55.51.742936 +0530,
-150,z,131,3,32,z,1,0.25822295795660466,None,32,3,131,3,,,,,306.35559604200535,,306.35046795901144,306.35559604200535,307.3484107500408,307.3484107500408,307.3484107500408,307.3484107500408,307.3534497920191,308.34849408402806,308.34849408402806,308.61735662503634,z,1,0.25822295795660466,None,,,,,4,001,2025-10-01_12h55.44.841, Motor Sequence Learning,,2025.1.1,None,2025-10-01 12h55.51.742936 +0530,
-50,x,132,0,33,x,1,0.2787784580141306,None,33,0,132,0,,,,,308.6258923750138,,308.61816374998307,308.6258923750138,309.6151727089891,309.6151727089891,309.6151727089891,309.6151727089891,309.62010204198305,310.61504770902684,310.61504770902684,310.9004965000204,x,1,0.2787784580141306,None,,,,,4,001,2025-10-01_12h55.44.841, Motor Sequence Learning,,2025.1.1,None,2025-10-01 12h55.51.742936 +0530,
150,v,133,1,33,v,1,0.30519008298870176,None,33,1,133,1,,,,,310.9089762090007,,310.90128654200817,310.9089762090007,311.89839937502984,311.89839937502984,311.89839937502984,311.89839937502984,311.90386987500824,312.8985208339873,312.8985208339873,313.20556825003587,v,1,0.30519008298870176,None,,,,,4,001,2025-10-01_12h55.44.841, Motor Sequence Learning,,2025.1.1,None,2025-10-01 12h55.51.742936 +0530,
50,c,134,2,33,c,1,0.28212762501789257,None,33,2,134,2,,,,,313.214419625001,,313.20605216699187,313.214419625001,314.202561958984,314.202561958984,314.202561958984,314.202561958984,314.202561958984,315.2045442920062,315.2045442920062,315.49036645900924,c,1,0.28212762501789257,None,,,,,4,001,2025-10-01_12h55.44.841, Motor Sequence Learning,,2025.1.1,None,2025-10-01 12h55.51.742936 +0530,
-150,z,135,3,33,z,1,0.3367354579968378,None,33,3,135,3,,,,,315.49763408402214,,315.4908215419855,315.49763408402214,316.4872952500009,316.4872952500009,316.4872952500009,316.4872952500009,316.4872952500009,317.4878596669878,317.4878596669878,317.8340235420037,z,1,0.3367354579968378,None,,,,,4,001,2025-10-01_12h55.44.841, Motor Sequence Learning,,2025.1.1,None,2025-10-01 12h55.51.742936 +0530,
-50,x,136,0,34,x,1,0.309616582992021,None,34,0,136,0,,,,,317.8421373750316,,317.8345955419936,317.8421373750316,318.83188604202587,318.83188604202587,318.83188604202587,318.83188604202587,318.8381967089954,319.83191599999554,319.83191599999554,320.15006541699404,x,1,0.309616582992021,None,,,,,4,001,2025-10-01_12h55.44.841, Motor Sequence Learning,,2025.1.1,None,2025-10-01 12h55.51.742936 +0530,
150,v,137,1,34,v,1,0.24205516697838902,None,34,1,137,1,,,,,320.15841729199747,,320.15062729199417,320.15841729199747,321.1486760000116,321.1486760000116,321.1486760000116,321.1486760000116,321.1549007500289,322.1484201250132,322.1484201250132,322.4002816249849,v,1,0.24205516697838902,None,,,,,4,001,2025-10-01_12h55.44.841, Motor Sequence Learning,,2025.1.1,None,2025-10-01 12h55.51.742936 +0530,
50,c,138,2,34,c,1,0.16301612398819998,None,34,2,138,2,,,,,322.40825254202355,,322.4009017919889,322.40825254202355,323.3984232500079,323.3984232500079,323.3984232500079,323.3984232500079,323.4027686250047,324.39848283398896,324.39848283398896,324.5673217920121,c,1,0.16301612398819998,None,,,,,4,001,2025-10-01_12h55.44.841, Motor Sequence Learning,,2025.1.1,None,2025-10-01 12h55.51.742936 +0530,
-150,z,139,3,34,z,1,0.5578881670371629,None,34,3,139,3,,,,,324.57594408403384,,324.56794545898447,324.57594408403384,325.56520295899827,325.56520295899827,325.56520295899827,325.56520295899827,325.57086520903977,326.56534875003854,326.56534875003854,327.133614499995,z,1,0.5578881670371629,None,,,,,4,001,2025-10-01_12h55.44.841, Motor Sequence Learning,,2025.1.1,None,2025-10-01 12h55.51.742936 +0530,
-50,x,140,0,35,x,1,0.2705703329993412,None,35,0,140,0,,,,,327.1420662919991,,327.1341296249884,327.1420662919991,328.1318441670155,328.1318441670155,328.1318441670155,328.1318441670155,328.13674379198346,329.1317532089888,329.1317532089888,329.40598091698484,x,1,0.2705703329993412,None,,,,,4,001,2025-10-01_12h55.44.841, Motor Sequence Learning,,2025.1.1,None,2025-10-01 12h55.51.742936 +0530,
150,v,141,1,35,v,1,0.3363149999640882,None,35,1,141,1,,,,,329.4145154590369,,329.40656475001015,329.4145154590369,330.40344716701657,330.40344716701657,330.40344716701657,330.40344716701657,330.40344716701657,331.40402516699396,331.40402516699396,331.75075458403444,v,1,0.3363149999640882,None,,,,,4,001,2025-10-01_12h55.44.841, Motor Sequence Learning,,2025.1.1,None,2025-10-01 12h55.51.742936 +0530,
50,c,142,2,35,c,1,0.05076512403320521,None,35,2,142,2,,,,,331.75966441701166,,331.7516188340378,331.75966441701166,332.7484965840122,332.7484965840122,332.7484965840122,332.7484965840122,332.75383312499616,333.748347249988,333.748347249988,333.80463804199826,c,1,0.05076512403320521,None,,,,,4,001,2025-10-01_12h55.44.841, Motor Sequence Learning,,2025.1.1,None,2025-10-01 12h55.51.742936 +0530,
-150,z,143,3,35,z,1,0.34124154096934944,None,35,3,143,3,,,,,333.8144120420329,,333.80514541699085,333.8144120420329,334.80392075004056,334.80392075004056,334.80392075004056,334.80392075004056,334.80392075004056,335.8049208750017,335.8049208750017,336.1501250420115,z,1,0.34124154096934944,None,,,,,4,001,2025-10-01_12h55.44.841, Motor Sequence Learning,,2025.1.1,None,2025-10-01 12h55.51.742936 +0530,
-50,x,144,0,36,x,1,0.3727221239823848,None,36,0,144,0,,,,,336.160592292028,,336.15081237501,336.160592292028,337.1486851670197,337.1486851670197,337.1486851670197,337.1486851670197,337.1551650839974,338.1482821670361,338.1482821670361,338.53345545899356,x,1,0.3727221239823848,None,,,,,4,001,2025-10-01_12h55.44.841, Motor Sequence Learning,,2025.1.1,None,2025-10-01 12h55.51.742936 +0530,
150,v,145,1,36,v,1,0.39932120800949633,None,36,1,145,1,,,,,338.5437728340039,,338.534155292029,338.5437728340039,339.53191033401527,339.53191033401527,339.53191033401527,339.53191033401527,339.5382399170194,340.53177175001474,340.53177175001474,340.933447916992,v,1,0.39932120800949633,None,,,,,4,001,2025-10-01_12h55.44.841, Motor Sequence Learning,,2025.1.1,None,2025-10-01 12h55.51.742936 +0530,
50,c,146,2,36,c,1,0.28049904096405953,None,36,2,146,2,,,,,340.94292829203187,,340.93405262503074,340.94292829203187,341.93190166703425,341.93190166703425,341.93190166703425,341.93190166703425,341.93734504200984,342.93179962498834,342.93179962498834,343.21684437501244,c,1,0.28049904096405953,None,,,,,4,001,2025-10-01_12h55.44.841, Motor Sequence Learning,,2025.1.1,None,2025-10-01 12h55.51.742936 +0530,
-150,z,147,3,36,z,1,0.28987845801748335,None,36,3,147,3,,,,,343.2268662920105,,343.2173777919961,343.2268662920105,344.2149977920344,344.2149977920344,344.2149977920344,344.2149977920344,344.2206145839882,345.2151034590206,345.2151034590206,345.5168772499892,z,1,0.28987845801748335,None,,,,,4,001,2025-10-01_12h55.44.841, Motor Sequence Learning,,2025.1.1,None,2025-10-01 12h55.51.742936 +0530,
-50,x,148,0,37,x,1,0.2970156249939464,None,37,0,148,0,,,,,345.5268037089845,,345.517419959011,345.5268037089845,346.5151534170145,346.5151534170145,346.5151534170145,346.5151534170145,346.52046433399664,347.5149761250359,347.5149761250359,347.8168265420245,x,1,0.2970156249939464,None,,,,,4,001,2025-10-01_12h55.44.841, Motor Sequence Learning,,2025.1.1,None,2025-10-01 12h55.51.742936 +0530,
150,v,149,1,37,v,1,0.30271820799680427,None,37,1,149,1,,,,,347.82692387502175,,347.8174771250342,347.82692387502175,348.81521550001344,348.81521550001344,348.81521550001344,348.81521550001344,348.82067924999865,349.815119417035,349.815119417035,350.1212052089977,v,1,0.30271820799680427,None,,,,,4,001,2025-10-01_12h55.44.841, Motor Sequence Learning,,2025.1.1,None,2025-10-01 12h55.51.742936 +0530,
50,c,150,2,37,c,1,0.3402393330470659,None,37,2,150,2,,,,,350.1307984170271,,350.12167675001547,350.1307984170271,351.12165320903296,351.12165320903296,351.12165320903296,351.12165320903296,351.12165320903296,352.1206363750389,352.1206363750389,352.4667849999969,c,1,0.3402393330470659,None,,,,,4,001,2025-10-01_12h55.44.841, Motor Sequence Learning,,2025.1.1,None,2025-10-01 12h55.51.742936 +0530,
-150,z,151,3,37,z,1,0.2958742910414003,None,37,3,151,3,,,,,352.47672387503553,,352.46754791704006,352.47672387503553,353.4651037500007,353.4651037500007,353.4651037500007,353.4651037500007,353.4700682089897,354.4649862500373,354.4649862500373,354.76723208400654,z,1,0.2958742910414003,None,,,,,4,001,2025-10-01_12h55.44.841, Motor Sequence Learning,,2025.1.1,None,2025-10-01 12h55.51.742936 +0530,
-50,x,152,0,38,x,1,0.24261441599810496,None,38,0,152,0,,,,,354.77709929202683,,354.7679132919875,354.77709929202683,355.7649507499882,355.7649507499882,355.7649507499882,355.7649507499882,355.76973574998556,356.76507845899323,356.76507845899323,357.0167248339858,x,1,0.24261441599810496,None,,,,,4,001,2025-10-01_12h55.44.841, Motor Sequence Learning,,2025.1.1,None,2025-10-01 12h55.51.742936 +0530,
150,v,153,1,38,v,1,0.2993405410088599,None,38,1,153,1,,,,,357.0264905419899,,357.01756170898443,357.0264905419899,358.01509229198564,358.01509229198564,358.01509229198564,358.01509229198564,358.0200669170008,359.01524637499824,359.01524637499824,359.3168245840352,v,1,0.2993405410088599,None,,,,,4,001,2025-10-01_12h55.44.841, Motor Sequence Learning,,2025.1.1,None,2025-10-01 12h55.51.742936 +0530,
50,c,154,2,38,c,1,0.2674075830145739,None,38,2,154,2,,,,,359.32618358399486,,359.31747916701715,359.32618358399486,360.3152864589938,360.3152864589938,360.3152864589938,360.3152864589938,360.3211144169909,361.3150925420341,361.3150925420341,361.5884889590088,c,1,0.2674075830145739,None,,,,,4,001,2025-10-01_12h55.44.841, Motor Sequence Learning,,2025.1.1,None,2025-10-01 12h55.51.742936 +0530,
-150,z,155,3,38,z,1,0.38295212504453957,None,38,3,155,3,,,,,361.5976811670116,,361.58903408399783,361.5976811670116,362.58894270902965,362.58894270902965,362.58894270902965,362.58894270902965,362.58894270902965,363.58763312501833,363.58763312501833,363.972929999989,z,1,0.38295212504453957,None,,,,,4,001,2025-10-01_12h55.44.841, Motor Sequence Learning,,2025.1.1,None,2025-10-01 12h55.51.742936 +0530,
-50,x,156,0,39,x,1,0.28317549999337643,None,39,0,156,0,,,,,363.9985980000347,,363.97346775000915,363.9985980000347,364.9700280840043,364.9700280840043,364.9700280840043,364.9700280840043,364.98586216702824,365.9713159170351,365.9713159170351,366.26674437499605,x,1,0.28317549999337643,None,,,,,4,001,2025-10-01_12h55.44.841, Motor Sequence Learning,,2025.1.1,None,2025-10-01 12h55.51.742936 +0530,
150,v,157,1,39,v,1,0.3081767910043709,None,39,1,157,1,,,,,366.27618929202436,,366.2672610000009,366.27618929202436,367.264994541998,367.264994541998,367.264994541998,367.264994541998,367.2709104170208,368.2652392500313,368.2652392500313,368.58338633400854,v,1,0.3081767910043709,None,,,,,4,001,2025-10-01_12h55.44.841, Motor Sequence Learning,,2025.1.1,None,2025-10-01 12h55.51.742936 +0530,
50,c,158,2,39,c,1,0.44589475000975654,None,39,2,158,2,,,,,368.5924609170179,,368.583940875018,368.5924609170179,369.58168937498704,369.58168937498704,369.58168937498704,369.58168937498704,369.58668145904085,370.5816256669932,370.5816256669932,371.0338975000195,c,1,0.44589475000975654,None,,,,,4,001,2025-10-01_12h55.44.841, Motor Sequence Learning,,2025.1.1,None,2025-10-01 12h55.51.742936 +0530,
-150,z,159,3,39,z,1,0.22863112500635907,None,39,3,159,3,,,,,371.0434962090221,,371.03461341699585,371.0434962090221,372.0318553340039,372.0318553340039,372.0318553340039,372.0318553340039,372.0381789589883,373.031748584006,373.031748584006,373.2668995420099,z,1,0.22863112500635907,None,,,,,4,001,2025-10-01_12h55.44.841, Motor Sequence Learning,,2025.1.1,None,2025-10-01 12h55.51.742936 +0530,
-50,x,160,0,40,x,1,0.6103825829923153,None,40,0,160,0,,,,,373.2762498750235,,373.2674075840041,373.2762498750235,374.2650660420186,374.2650660420186,374.2650660420186,374.2650660420186,374.2700497090118,375.26498516701395,375.26498516701395,375.883696208999,x,1,0.6103825829923153,None,,,,,4,001,2025-10-01_12h55.44.841, Motor Sequence Learning,,2025.1.1,None,2025-10-01 12h55.51.742936 +0530,
150,v,161,1,40,v,1,0.28542433300754055,None,40,1,161,1,,,,,375.89340920903487,,375.884560000035,375.89340920903487,376.88171679200605,376.88171679200605,376.88171679200605,376.88171679200605,376.8871653749957,377.88180358399404,377.88180358399404,378.17263787501724,v,1,0.28542433300754055,None,,,,,4,001,2025-10-01_12h55.44.841, Motor Sequence Learning,,2025.1.1,None,2025-10-01 12h55.51.742936 +0530,
50,c,162,2,40,c,1,0.269286833005026,None,40,2,162,2,,,,,378.1814722500276,,378.17318587499904,378.1814722500276,379.1699997090036,379.1699997090036,379.1699997090036,379.1699997090036,379.1699997090036,380.1705390000134,380.1705390000134,380.45021312503377,c,1,0.269286833005026,None,,,,,4,001,2025-10-01_12h55.44.841, Motor Sequence Learning,,2025.1.1,None,2025-10-01 12h55.51.742936 +0530,
-150,z,163,3,40,z,1,0.4838131659780629,None,40,3,163,3,,,,,380.4590450419928,,380.45072816702304,380.4590450419928,381.4485486249905,381.4485486249905,381.4485486249905,381.4485486249905,381.4568864169996,382.4483595000347,382.4483595000347,382.93906570901163,z,1,0.4838131659780629,None,,,,,4,001,2025-10-01_12h55.44.841, Motor Sequence Learning,,2025.1.1,None,2025-10-01 12h55.51.742936 +0530,
-50,x,164,0,41,x,1,0.2953160830074921,None,41,0,164,0,,,,,382.95378529198933,,382.93961066700285,382.95378529198933,383.93704250000883,383.93704250000883,383.93704250000883,383.93704250000883,383.94847225002013,384.93777512502857,384.93777512502857,385.23788183403667,x,1,0.2953160830074921,None,,,,,4,001,2025-10-01_12h55.44.841, Motor Sequence Learning,,2025.1.1,None,2025-10-01 12h55.51.742936 +0530,
150,v,165,1,41,v,1,0.6968627499882132,None,41,1,165,1,,,,,385.24747595901135,,385.23841045901645,385.24747595901135,386.2374067089986,386.2374067089986,386.2374067089986,386.2374067089986,386.2374067089986,387.2372354590334,387.2372354590334,387.93816054199124,v,1,0.6968627499882132,None,,,,,4,001,2025-10-01_12h55.44.841, Motor Sequence Learning,,2025.1.1,None,2025-10-01 12h55.51.742936 +0530,
50,c,166,2,41,c,1,0.5766101249610074,None,41,2,166,2,,,,,387.9476429169881,,387.9387178340112,387.9476429169881,388.9371214170242,388.9371214170242,388.9371214170242,388.9371214170242,388.9371214170242,389.9374261670164,389.9374261670164,390.51737579202745,c,1,0.5766101249610074,None,,,,,4,001,2025-10-01_12h55.44.841, Motor Sequence Learning,,2025.1.1,None,2025-10-01 12h55.51.742936 +0530,
-150,z,167,3,41,z,1,0.5050109580042772,None,41,3,167,3,,,,,390.52725216699764,,390.5182431670255,390.52725216699764,391.5149497920065,391.5149497920065,391.5149497920065,391.5149497920065,391.520563166996,392.51495495898416,392.51495495898416,393.02141554199625,z,1,0.5050109580042772,None,,,,,4,001,2025-10-01_12h55.44.841, Motor Sequence Learning,,2025.1.1,None,2025-10-01 12h55.51.742936 +0530,
-50,x,168,0,42,x,1,0.9973242079722695,None,42,0,168,0,,,,,393.0308656670386,,393.0219860840007,393.0308656670386,394.02063316700514,394.02063316700514,394.02063316700514,394.02063316700514,394.02063316700514,395.02156187500805,395.02156187500805,396.0217784999986,x,1,0.9973242079722695,None,,,,,4,001,2025-10-01_12h55.44.841, Motor Sequence Learning,,2025.1.1,None,2025-10-01 12h55.51.742936 +0530,
150,v,169,1,42,v,1,0.3548662079847418,None,42,1,169,1,,,,,396.03139708400704,,396.02229895902565,396.03139708400704,397.02012241701595,397.02012241701595,397.02012241701595,397.02012241701595,397.02012241701595,398.0207288750098,398.0207288750098,398.383732458984,v,1,0.3548662079847418,None,,,,,4,001,2025-10-01_12h55.44.841, Motor Sequence Learning,,2025.1.1,None,2025-10-01 12h55.51.742936 +0530,
50,c,170,2,42,c,1,0.37725262402091175,None,42,2,170,2,,,,,398.39404891699087,,398.38457200000994,398.39404891699087,399.3817015000386,399.3817015000386,399.3817015000386,399.3817015000386,399.38674300001003,400.38159012503456,400.38159012503456,400.76719533401774,c,1,0.37725262402091175,None,,,,,4,001,2025-10-01_12h55.44.841, Motor Sequence Learning,,2025.1.1,None,2025-10-01 12h55.51.742936 +0530,
-150,z,171,3,42,z,1,0.29877862404100597,None,42,3,171,3,,,,,400.77704449999146,,400.7678189590224,400.77704449999146,401.7649245840148,401.7649245840148,401.7649245840148,401.7649245840148,401.77013474999694,402.7649796670303,402.7649796670303,403.06675408402225,z,1,0.29877862404100597,None,,,,,4,001,2025-10-01_12h55.44.841, Motor Sequence Learning,,2025.1.1,None,2025-10-01 12h55.51.742936 +0530,
-50,x,172,0,43,x,1,0.2827897489769384,None,43,0,172,0,,,,,403.07668491703225,,403.0673170000082,403.07668491703225,404.06500829203287,404.06500829203287,404.06500829203287,404.06500829203287,404.07003833400086,405.06489949999377,405.06489949999377,405.35031449998496,x,1,0.2827897489769384,None,,,,,4,001,2025-10-01_12h55.44.841, Motor Sequence Learning,,2025.1.1,None,2025-10-01 12h55.51.742936 +0530,
150,v,173,1,43,v,1,0.2634565409971401,None,43,1,173,1,,,,,405.360487167025,,405.3508708340232,405.360487167025,406.3482803340303,406.3482803340303,406.3482803340303,406.3482803340303,406.35253133403603,407.34815383399837,407.34815383399837,407.6166941670235,v,1,0.2634565409971401,None,,,,,4,001,2025-10-01_12h55.44.841, Motor Sequence Learning,,2025.1.1,None,2025-10-01 12h55.51.742936 +0530,
50,c,174,2,43,c,1,0.29944179201265797,None,43,2,174,2,,,,,407.62682000000495,,407.61727612500545,407.62682000000495,408.61501441703876,408.61501441703876,408.61501441703876,408.61501441703876,408.6207275420311,409.6151506670285,409.6151506670285,409.91714441700606,c,1,0.29944179201265797,None,,,,,4,001,2025-10-01_12h55.44.841, Motor Sequence Learning,,2025.1.1,None,2025-10-01 12h55.51.742936 +0530,
-150,z,175,3,43,z,1,0.29865737503860146,None,43,3,175,3,,,,,409.9272561669932,,409.9177958340151,409.9272561669932,410.9149577920325,410.9149577920325,410.9149577920325,410.9149577920325,410.9203180419863,411.9148789590108,411.9148789590108,412.21719287498854,z,1,0.29865737503860146,None,,,,,4,001,2025-10-01_12h55.44.841, Motor Sequence Learning,,2025.1.1,None,2025-10-01 12h55.51.742936 +0530,
-50,x,176,0,44,x,1,0.33955329202581197,None,44,0,176,0,,,,,412.22743195900694,,412.21781500004,412.22743195900694,413.2149261669838,413.2149261669838,413.2149261669838,413.2149261669838,413.2207310000085,414.214947208995,414.214947208995,414.5669671249925,x,1,0.33955329202581197,None,,,,,4,001,2025-10-01_12h55.44.841, Motor Sequence Learning,,2025.1.1,None,2025-10-01 12h55.51.742936 +0530,
150,v,177,1,44,v,1,0.48352708300808445,None,44,1,177,1,,,,,414.57710083399434,,414.56751591700595,414.57710083399434,415.5650916250306,415.5650916250306,415.5650916250306,415.5650916250306,415.57084779202705,416.5649007500033,416.5649007500033,417.0610265840078,v,1,0.48352708300808445,None,,,,,4,001,2025-10-01_12h55.44.841, Motor Sequence Learning,,2025.1.1,None,2025-10-01 12h55.51.742936 +0530,
50,c,178,2,44,c,1,0.3288387499633245,None,44,2,178,2,,,,,417.0648027090356,,417.0614587920136,417.0648027090356,418.0542095419951,418.0542095419951,418.0542095419951,418.0542095419951,418.0542095419951,419.0540859590401,419.0540859590401,419.38816891703755,c,1,0.3288387499633245,None,,,,,4,001,2025-10-01_12h55.44.841, Motor Sequence Learning,,2025.1.1,None,2025-10-01 12h55.51.742936 +0530,
-150,z,179,3,44,z,1,0.39715116599109024,None,44,3,179,3,,,,,419.3977670840104,,419.38869012502255,419.3977670840104,420.3873635419877,420.3873635419877,420.3873635419877,420.3873635419877,420.3873635419877,421.387224917009,421.387224917009,421.78787920903414,z,1,0.39715116599109024,None,,,,,4,001,2025-10-01_12h55.44.841, Motor Sequence Learning,,2025.1.1,None,2025-10-01 12h55.51.742936 +0530,
-50,x,180,0,45,x,1,0.29763595800613984,None,45,0,180,0,,,,,421.7976928750286,,421.7884131669998,421.7976928750286,422.7871323750005,422.7871323750005,422.7871323750005,422.7871323750005,422.7871323750005,423.7877292500343,423.7877292500343,424.0883728340268,x,1,0.29763595800613984,None,,,,,4,001,2025-10-01_12h55.44.841, Motor Sequence Learning,,2025.1.1,None,2025-10-01 12h55.51.742936 +0530,
150,v,181,1,45,v,1,0.3128392489743419,None,45,1,181,1,,,,,424.09814941702643,,424.0889614589978,424.09814941702643,425.087281583983,425.087281583983,425.087281583983,425.087281583983,425.087281583983,426.08739945903653,426.08739945903653,426.4052170839859,v,1,0.3128392489743419,None,,,,,4,001,2025-10-01_12h55.44.841, Motor Sequence Learning,,2025.1.1,None,2025-10-01 12h55.51.742936 +0530,
50,c,182,2,45,c,1,0.3044195409747772,None,45,2,182,2,,,,,426.4146277499967,,426.40576108399546,426.4146277499967,427.40255008399254,427.40255008399254,427.40255008399254,427.40255008399254,427.40255008399254,428.40485566703137,428.40485566703137,428.71680783398915,c,1,0.3044195409747772,None,,,,,4,001,2025-10-01_12h55.44.841, Motor Sequence Learning,,2025.1.1,None,2025-10-01 12h55.51.742936 +0530,
-150,z,183,3,45,z,1,0.278321165998932,None,45,3,183,3,,,,,428.7264975840226,,428.71736820903607,428.7264975840226,429.7149095420027,429.7149095420027,429.7149095420027,429.7149095420027,429.72008870902937,430.7147759590298,430.7147759590298,431.00013670901535,z,1,0.278321165998932,None,,,,,4,001,2025-10-01_12h55.44.841, Motor Sequence Learning,,2025.1.1,None,2025-10-01 12h55.51.742936 +0530,
-50,x,184,0,46,x,1,0.3037008329993114,None,46,0,184,0,,,,,431.00978650001343,,431.0006665420369,431.00978650001343,431.9983887920389,431.9983887920389,431.9983887920389,431.9983887920389,432.0045354590402,432.9983273750404,432.9983273750404,433.3047490839963,x,1,0.3037008329993114,None,,,,,4,001,2025-10-01_12h55.44.841, Motor Sequence Learning,,2025.1.1,None,2025-10-01 12h55.51.742936 +0530,
150,v,185,1,46,v,1,0.276118875015527,None,46,1,185,1,,,,,433.31416083400836,,433.30529245903017,433.31416083400836,434.3032932920032,434.3032932920032,434.3032932920032,434.3032932920032,434.3032932920032,435.303861375025,435.303861375025,435.5833294169861,v,1,0.276118875015527,None,,,,,4,001,2025-10-01_12h55.44.841, Motor Sequence Learning,,2025.1.1,None,2025-10-01 12h55.51.742936 +0530,
50,c,186,2,46,c,1,0.3062516250065528,None,46,2,186,2,,,,,435.5930363750085,,435.5838806250249,435.5930363750085,436.58157345902873,436.58157345902873,436.58157345902873,436.58157345902873,436.5863395840279,437.58165529201506,437.58165529201506,437.90010095899925,c,1,0.3062516250065528,None,,,,,4,001,2025-10-01_12h55.44.841, Motor Sequence Learning,,2025.1.1,None,2025-10-01 12h55.51.742936 +0530,
-150,z,187,3,46,z,1,0.37469500000588596,None,46,3,187,3,,,,,437.9102036670083,,437.9008816250134,437.9102036670083,438.89832341700094,438.89832341700094,438.89832341700094,438.89832341700094,438.9049106669845,439.89825758402003,439.89825758402003,440.2834437499987,z,1,0.37469500000588596,None,,,,,4,001,2025-10-01_12h55.44.841, Motor Sequence Learning,,2025.1.1,None,2025-10-01 12h55.51.742936 +0530,
-50,x,188,0,47,x,1,0.28427262499462813,None,47,0,188,0,,,,,440.29320729203755,,440.28398508403916,440.29320729203755,441.2815201670164,441.2815201670164,441.2815201670164,441.2815201670164,441.2862989589921,442.28150645899586,442.28150645899586,442.57147733401507,x,1,0.28427262499462813,None,,,,,4,001,2025-10-01_12h55.44.841, Motor Sequence Learning,,2025.1.1,None,2025-10-01 12h55.51.742936 +0530,
150,v,189,1,47,v,1,0.3265613329713233,None,47,1,189,1,,,,,442.5808740420034,,442.57200579199707,442.5808740420034,443.5704783340334,443.5704783340334,443.5704783340334,443.5704783340334,443.5704783340334,444.5703086249996,444.5703086249996,444.900531375024,v,1,0.3265613329713233,None,,,,,4,001,2025-10-01_12h55.44.841, Motor Sequence Learning,,2025.1.1,None,2025-10-01 12h55.51.742936 +0530,
50,c,190,2,47,c,1,0.29969391599297523,None,47,2,190,2,,,,,444.91189516702434,,444.9012263750192,444.91189516702434,445.898187874991,445.898187874991,445.898187874991,445.898187874991,445.9033904169919,446.89810312498594,446.89810312498594,447.20011416700436,c,1,0.29969391599297523,None,,,,,4,001,2025-10-01_12h55.44.841, Motor Sequence Learning,,2025.1.1,None,2025-10-01 12h55.51.742936 +0530,
-150,z,191,3,47,z,1,0.2825310830376111,None,47,3,191,3,,,,,447.20998204202624,,447.2006685840315,447.20998204202624,448.1983568749856,448.1983568749856,448.1983568749856,448.1983568749856,448.2037630000268,449.1982177090249,449.1982177090249,449.4838402500027,z,1,0.2825310830376111,None,,,,,4,001,2025-10-01_12h55.44.841, Motor Sequence Learning,,2025.1.1,None,2025-10-01 12h55.51.742936 +0530,
-50,x,192,0,48,x,1,0.4001585000078194,None,48,0,192,0,,,,,449.4937120840186,,449.4844008749933,449.4937120840186,450.481418209034,450.481418209034,450.481418209034,450.481418209034,450.48632291698596,451.48145825002575,451.48145825002575,451.8937128339894,x,1,0.4001585000078194,None,,,,,4,001,2025-10-01_12h55.44.841, Motor Sequence Learning,,2025.1.1,None,2025-10-01 12h55.51.742936 +0530,
150,v,193,1,48,v,1,0.33616583299590275,None,48,1,193,1,,,,,451.89741612499347,,451.89413112500915,451.89741612499347,452.8879528340185,452.8879528340185,452.8879528340185,452.8879528340185,452.8879528340185,453.88717237499077,453.88717237499077,454.2333597090328,v,1,0.33616583299590275,None,,,,,4,001,2025-10-01_12h55.44.841, Motor Sequence Learning,,2025.1.1,None,2025-10-01 12h55.51.742936 +0530,
50,c,194,2,48,c,1,0.2861196660087444,None,48,2,194,2,,,,,454.2434974589851,,454.2341236670036,454.2434974589851,455.2315710000112,455.2315710000112,455.2315710000112,455.2315710000112,455.2372381250025,456.23143812501803,456.23143812501803,456.52182033401914,c,1,0.2861196660087444,None,,,,,4,001,2025-10-01_12h55.44.841, Motor Sequence Learning,,2025.1.1,None,2025-10-01 12h55.51.742936 +0530,
-150,z,195,3,48,z,1,0.252375791023951,None,48,3,195,3,,,,,456.5487035420374,,456.52236745902337,456.5487035420374,457.5205263340031,457.5205263340031,457.5205263340031,457.5205263340031,457.53650416701566,458.52020095899934,458.52020095899934,458.7834488750086,z,1,0.252375791023951,None,,,,,4,001,2025-10-01_12h55.44.841, Motor Sequence Learning,,2025.1.1,None,2025-10-01 12h55.51.742936 +0530,
-50,x,196,0,49,x,1,0.37498149898601696,None,49,0,196,0,,,,,458.79352870903676,,458.78399666701443,458.79352870903676,459.7815779169905,459.7815779169905,459.7815779169905,459.7815779169905,459.7872338340385,460.78146900003776,460.78146900003776,461.1676584589877,x,1,0.37498149898601696,None,,,,,4,001,2025-10-01_12h55.44.841, Motor Sequence Learning,,2025.1.1,None,2025-10-01 12h55.51.742936 +0530,
150,v,197,1,49,v,1,0.44537745794514194,None,49,1,197,1,,,,,461.1780124169891,,461.16852266702335,461.1780124169891,462.16470641701017,462.16470641701017,462.16470641701017,462.16470641701017,462.1695332090021,463.16496975003975,463.16496975003975,463.61675220902544,v,1,0.44537745794514194,None,,,,,4,001,2025-10-01_12h55.44.841, Motor Sequence Learning,,2025.1.1,None,2025-10-01 12h55.51.742936 +0530,
50,c,198,2,49,c,1,0.2579415420186706,None,49,2,198,2,,,,,463.6267777920002,,463.61729475000175,463.6267777920002,464.61485091701616,464.61485091701616,464.61485091701616,464.61485091701616,464.61985437502153,465.61450754199177,465.61450754199177,465.883440042031,c,1,0.2579415420186706,None,,,,,4,001,2025-10-01_12h55.44.841, Motor Sequence Learning,,2025.1.1,None,2025-10-01 12h55.51.742936 +0530,
-150,z,199,3,49,z,1,0.29791741602821276,None,49,3,199,3,,,,,465.8932165839942,,465.8839589590207,465.8932165839942,466.8814489590004,466.8814489590004,466.8814489590004,466.8814489590004,466.88677608402213,467.8813713340205,467.8813713340205,468.18341433402384,z,1,0.29791741602821276,None,,,,,4,001,2025-10-01_12h55.44.841, Motor Sequence Learning,,2025.1.1,None,2025-10-01 12h55.51.742936 +0530,
150,v,0,0,0,v,1,0.4988931239931844,None,,,,,0,0,0,1,468.20272000000114,,468.19634187500924,468.20272000000114,469.1814880000311,469.1814880000311,469.1814880000311,469.1814880000311,469.1980784169864,470.18133695900906,470.18133695900906,470.68337033403805,,,,,v,1,0.4988931239931844,None,4,001,2025-10-01_12h55.44.841, Motor Sequence Learning,,2025.1.1,None,2025-10-01 12h55.51.742936 +0530,
-50,x,1,1,0,x,1,0.29373466601828113,None,,,,,0,1,1,0,470.692727125017,,470.6839455839945,470.692727125017,471.68154324998613,471.68154324998613,471.68154324998613,471.68154324998613,471.6868097090046,472.6814604590181,472.6814604590181,472.98348433402134,,,,,x,1,0.29373466601828113,None,4,001,2025-10-01_12h55.44.841, Motor Sequence Learning,,2025.1.1,None,2025-10-01 12h55.51.742936 +0530,
50,c,2,2,0,c,1,0.30679308297112584,None,,,,,0,2,2,2,472.9933828749927,,472.98401783400914,472.9933828749927,473.9815632920363,473.9815632920363,473.9815632920363,473.9815632920363,473.98813387501286,474.9813925839844,474.9813925839844,475.3000516250031,,,,,c,1,0.30679308297112584,None,4,001,2025-10-01_12h55.44.841, Motor Sequence Learning,,2025.1.1,None,2025-10-01 12h55.51.742936 +0530,
150,v,3,3,1,v,1,0.4570880829705857,None,,,,,1,3,3,1,475.3096292089904,,475.30076712503796,475.3096292089904,476.2980121670407,476.2980121670407,476.2980121670407,476.2980121670407,476.3029737920151,477.2980854170164,477.2980854170164,477.7670876249904,,,,,v,1,0.4570880829705857,None,4,001,2025-10-01_12h55.44.841, Motor Sequence Learning,,2025.1.1,None,2025-10-01 12h55.51.742936 +0530,
50,c,4,4,1,c,1,0.36036358296405524,None,,,,,1,4,4,2,477.7763683340163,,477.76767158403527,477.7763683340163,478.76488650002284,478.76488650002284,478.76488650002284,478.76488650002284,478.7703581250389,479.7647727089934,479.7647727089934,480.13299929199275,,,,,c,1,0.36036358296405524,None,4,001,2025-10-01_12h55.44.841, Motor Sequence Learning,,2025.1.1,None,2025-10-01 12h55.51.742936 +0530,
-50,x,5,5,1,x,1,0.46067529101856053,None,,,,,1,5,5,0,480.140151959029,,480.13348029198823,480.140151959029,481.13151537498925,481.13151537498925,481.13151537498925,481.13151537498925,481.137379834021,482.13131870899815,482.13131870899815,482.5999375000247,,,,,x,1,0.46067529101856053,None,4,001,2025-10-01_12h55.44.841, Motor Sequence Learning,,2025.1.1,None,2025-10-01 12h55.51.742936 +0530,
-50,x,6,6,2,x,1,0.539925042015966,None,,,,,2,6,6,0,482.608082959021,,482.60051945899613,482.608082959021,483.5981374999974,483.5981374999974,483.5981374999974,483.5981374999974,483.6034589590272,484.5980755839846,484.5980755839846,485.15000379201956,,,,,x,1,0.539925042015966,None,4,001,2025-10-01_12h55.44.841, Motor Sequence Learning,,2025.1.1,None,2025-10-01 12h55.51.742936 +0530,
150,v,7,7,2,v,1,0.37884454103186727,None,,,,,2,7,7,1,485.1587201670045,,485.15076804201817,485.1587201670045,486.1481562500121,486.1481562500121,486.1481562500121,486.1481562500121,486.15343241702067,487.1480625839904,487.1480625839904,487.5337216670159,,,,,v,1,0.37884454103186727,None,4,001,2025-10-01_12h55.44.841, Motor Sequence Learning,,2025.1.1,None,2025-10-01 12h55.51.742936 +0530,
50,c,8,8,2,c,1,0.3063608749653213,None,,,,,2,8,8,2,487.542379416991,,487.53440445900196,487.542379416991,488.5313600419904,488.5313600419904,488.5313600419904,488.5313600419904,488.53661458403803,489.5314642090234,489.5314642090234,489.85034062503837,,,,,c,1,0.3063608749653213,None,4,001,2025-10-01_12h55.44.841, Motor Sequence Learning,,2025.1.1,None,2025-10-01 12h55.51.742936 +0530,
-50,x,9,9,3,x,1,0.45986941701266915,None,,,,,3,9,9,0,489.85869941703277,,489.85090083401883,489.85869941703277,490.848221125023,490.848221125023,490.848221125023,490.848221125023,490.8537569170003,491.84798833401874,491.84798833401874,492.3171602920047,,,,,x,1,0.45986941701266915,None,4,001,2025-10-01_12h55.44.841, Motor Sequence Learning,,2025.1.1,None,2025-10-01 12h55.51.742936 +0530,
150,v,10,10,3,v,1,0.5290828750003129,None,,,,,3,10,10,1,492.3258373340359,,492.3179692500271,492.3258373340359,493.31479475001106,493.31479475001106,493.31479475001106,493.31479475001106,493.3201352090109,494.31470520899165,494.31470520899165,494.850314625015,,,,,v,1,0.5290828750003129,None,4,001,2025-10-01_12h55.44.841, Motor Sequence Learning,,2025.1.1,None,2025-10-01 12h55.51.742936 +0530,
-150,z,11,11,0,z,1,0.44861691701225936,None,,,,,0,11,11,3,494.85942970903125,,494.8509397089947,494.85942970903125,495.84796779201133,495.84796779201133,495.84796779201133,495.84796779201133,495.85319100000197,496.8480641670176,496.8480641670176,497.29984270903515,,,,,z,1,0.44861691701225936,None,4,001,2025-10-01_12h55.44.841, Motor Sequence Learning,,2025.1.1,None,2025-10-01 12h55.51.742936 +0530,
-50,x,12,12,4,x,1,0.28568575001554564,None,,,,,4,12,12,0,497.3081577090197,,497.3004029170261,497.3081577090197,498.29808991699247,498.29808991699247,498.29808991699247,498.29808991699247,498.3039399170084,499.2979777920409,499.2979777920409,499.5874524170067,,,,,x,1,0.28568575001554564,None,4,001,2025-10-01_12h55.44.841, Motor Sequence Learning,,2025.1.1,None,2025-10-01 12h55.51.742936 +0530,
-50,x,13,13,5,x,1,0.5202164580114186,None,,,,,5,13,13,0,499.5973464170238,,499.5880200419924,499.5973464170238,500.58724908402655,500.58724908402655,500.58724908402655,500.58724908402655,500.58724908402655,501.58738287503365,501.58738287503365,502.1167067090282,,,,,x,1,0.5202164580114186,None,4,001,2025-10-01_12h55.44.841, Motor Sequence Learning,,2025.1.1,None,2025-10-01 12h55.51.742936 +0530,
150,v,14,14,4,v,1,0.3887262499774806,None,,,,,4,14,14,1,502.1250592499855,,502.11723162501585,502.1250592499855,503.11475416703615,503.11475416703615,503.11475416703615,503.11475416703615,503.11998650000896,504.11481562501285,504.11481562501285,504.51670533401193,,,,,v,1,0.3887262499774806,None,4,001,2025-10-01_12h55.44.841, Motor Sequence Learning,,2025.1.1,None,2025-10-01 12h55.51.742936 +0530,
50,c,15,15,3,c,1,0.27424087398685515,None,,,,,3,15,15,2,504.52576749998843,,504.51722920901375,504.52576749998843,505.5147862919839,505.5147862919839,505.5147862919839,505.5147862919839,505.5197771670064,506.51465387502685,506.51465387502685,506.8000242920243,,,,,c,1,0.27424087398685515,None,4,001,2025-10-01_12h55.44.841, Motor Sequence Learning,,2025.1.1,None,2025-10-01 12h55.51.742936 +0530,
50,c,16,16,4,c,1,0.4385732079972513,None,,,,,4,16,16,2,506.8083605419961,,506.8005647090031,506.8083605419961,507.7981080840109,507.7981080840109,507.7981080840109,507.7981080840109,507.8037237499957,508.7979757920257,508.7979757920257,509.2477706670179,,,,,c,1,0.4385732079972513,None,4,001,2025-10-01_12h55.44.841, Motor Sequence Learning,,2025.1.1,None,2025-10-01 12h55.51.742936 +0530,
50,c,17,17,5,c,1,0.44855287502286956,None,,,,,5,17,17,2,509.25164558400866,,509.2483338339953,509.25164558400866,510.2385760420002,510.2385760420002,510.2385760420002,510.2385760420002,510.2479343340383,511.2377813340281,511.2377813340281,511.68851070903474,,,,,c,1,0.44855287502286956,None,4,001,2025-10-01_12h55.44.841, Motor Sequence Learning,,2025.1.1,None,2025-10-01 12h55.51.742936 +0530,
50,c,18,18,6,c,1,0.44838483299827203,None,,,,,6,18,18,2,511.6972762920195,,511.68904783402104,511.6972762920195,512.6872835000395,512.6872835000395,512.6872835000395,512.6872835000395,512.6872835000395,513.686988542031,513.686988542031,514.1369546250207,,,,,c,1,0.44838483299827203,None,4,001,2025-10-01_12h55.44.841, Motor Sequence Learning,,2025.1.1,None,2025-10-01 12h55.51.742936 +0530,
-50,x,19,19,6,x,1,0.5238237499725074,None,,,,,6,19,19,0,514.1480067920056,,514.1373085420346,514.1480067920056,515.1385857920395,515.1385857920395,515.1385857920395,515.1385857920395,515.1385857920395,516.1375042090076,516.1375042090076,516.6665966670262,,,,,x,1,0.5238237499725074,None,4,001,2025-10-01_12h55.44.841, Motor Sequence Learning,,2025.1.1,None,2025-10-01 12h55.51.742936 +0530,
150,v,20,20,5,v,1,0.4664427079842426,None,,,,,5,20,20,1,516.6765381669975,,516.6671693340177,516.6765381669975,517.6646284590242,517.6646284590242,517.6646284590242,517.6646284590242,517.6695975000039,518.6646954590105,518.6646954590105,519.1332093339879,,,,,v,1,0.4664427079842426,None,4,001,2025-10-01_12h55.44.841, Motor Sequence Learning,,2025.1.1,None,2025-10-01 12h55.51.742936 +0530,
-150,z,21,21,1,z,1,0.6086679989821278,None,,,,,1,21,21,3,519.1432827500394,,519.133779500029,519.1432827500394,520.1313380840002,520.1313380840002,520.1313380840002,520.1313380840002,520.1362674999982,521.1314666669932,521.1314666669932,521.7499731249991,,,,,z,1,0.6086679989821278,None,4,001,2025-10-01_12h55.44.841, Motor Sequence Learning,,2025.1.1,None,2025-10-01 12h55.51.742936 +0530,
50,c,22,22,7,c,1,0.3579600410303101,None,,,,,7,22,22,2,521.7601382920402,,521.7505432920298,521.7601382920402,522.7481033339864,522.7481033339864,522.7481033339864,522.7481033339864,522.75340133399,523.7480890420265,523.7480890420265,524.1168736250256,,,,,c,1,0.3579600410303101,None,4,001,2025-10-01_12h55.44.841, Motor Sequence Learning,,2025.1.1,None,2025-10-01 12h55.51.742936 +0530,
-50,x,23,23,7,x,1,0.27641170797869563,None,,,,,7,23,23,0,524.1267300419859,,524.1174134170287,524.1267300419859,525.1146252920153,525.1146252920153,525.1146252920153,525.1146252920153,525.1193915419863,526.1147064170218,526.1147064170218,526.3999360000016,,,,,x,1,0.27641170797869563,None,4,001,2025-10-01_12h55.44.841, Motor Sequence Learning,,2025.1.1,None,2025-10-01 12h55.51.742936 +0530,
50,c,24,24,8,c,1,0.5190010409569368,None,,,,,8,24,24,2,526.4109143340029,,526.4007159169996,526.4109143340029,527.3980151250144,527.3980151250144,527.3980151250144,527.3980151250144,527.4032627090346,528.3979563339963,528.3979563339963,528.9210713750217,,,,,c,1,0.5190010409569368,None,4,001,2025-10-01_12h55.44.841, Motor Sequence Learning,,2025.1.1,None,2025-10-01 12h55.51.742936 +0530,
-50,x,25,25,8,x,1,0.6391692489851266,None,,,,,8,25,25,0,528.9308553750161,,528.9216520839836,528.9308553750161,529.9203111249954,529.9203111249954,529.9203111249954,529.9203111249954,529.9203111249954,530.920810666983,530.920810666983,531.5665042920155,,,,,x,1,0.6391692489851266,None,4,001,2025-10-01_12h55.44.841, Motor Sequence Learning,,2025.1.1,None,2025-10-01 12h55.51.742936 +0530,
150,v,26,26,6,v,1,0.6682248750003055,None,,,,,6,26,26,1,531.5762073750375,,531.5670464999857,531.5762073750375,532.5649629170075,532.5649629170075,532.5649629170075,532.5649629170075,532.5704040420242,533.5646066670306,533.5646066670306,534.2379954170319,,,,,v,1,0.6682248750003055,None,4,001,2025-10-01_12h55.44.841, Motor Sequence Learning,,2025.1.1,None,2025-10-01 12h55.51.742936 +0530,
-150,z,27,27,2,z,1,0.5130430000135675,None,,,,,2,27,27,3,534.2472684170352,,534.2385522500263,534.2472684170352,535.2373729170067,535.2373729170067,535.2373729170067,535.2373729170067,535.2373729170067,536.236815124983,536.236815124983,536.7552066250355,,,,,z,1,0.5130430000135675,None,4,001,2025-10-01_12h55.44.841, Motor Sequence Learning,,2025.1.1,None,2025-10-01 12h55.51.742936 +0530,
50,c,28,28,9,c,1,0.5580795829882845,None,,,,,9,28,28,2,536.7638372500078,,536.755749917007,536.7638372500078,537.7536820420064,537.7536820420064,537.7536820420064,537.7536820420064,537.7536820420064,538.7537823750172,538.7537823750172,539.3167776670307,,,,,c,1,0.5580795829882845,None,4,001,2025-10-01_12h55.44.841, Motor Sequence Learning,,2025.1.1,None,2025-10-01 12h55.51.742936 +0530,
150,v,29,29,7,v,1,0.4401111669722013,None,,,,,7,29,29,1,539.3265452919877,,539.3175063339877,539.3265452919877,540.314848375041,540.314848375041,540.314848375041,540.314848375041,540.3196032920387,541.314678292023,541.314678292023,541.766528459033,,,,,v,1,0.4401111669722013,None,4,001,2025-10-01_12h55.44.841, Motor Sequence Learning,,2025.1.1,None,2025-10-01 12h55.51.742936 +0530,
-50,x,30,30,9,x,1,0.334902000031434,None,,,,,9,30,30,0,541.7759738750174,,541.7673196250107,541.7759738750174,542.7646366250119,542.7646366250119,542.7646366250119,542.7646366250119,542.7697303339955,543.763986584032,543.763986584032,544.1052874170127,,,,,x,1,0.334902000031434,None,4,001,2025-10-01_12h55.44.841, Motor Sequence Learning,,2025.1.1,None,2025-10-01 12h55.51.742936 +0530,
150,v,31,31,8,v,1,0.40118470799643546,None,,,,,8,31,31,1,544.1318506250391,,544.1058532500174,544.1318506250391,545.1039620839874,545.1039620839874,545.1039620839874,545.1039620839874,545.1198322090204,546.1045156249893,546.1045156249893,546.5166931250133,,,,,v,1,0.40118470799643546,None,4,001,2025-10-01_12h55.44.841, Motor Sequence Learning,,2025.1.1,None,2025-10-01 12h55.51.742936 +0530,
-150,z,32,32,3,z,1,0.818971790955402,None,,,,,3,32,32,3,546.5263144589844,,546.5172223339905,546.5263144589844,547.5146676250151,547.5146676250151,547.5146676250151,547.5146676250151,547.519674167037,548.5145981670357,548.5145981670357,549.3375370840076,,,,,z,1,0.818971790955402,None,4,001,2025-10-01_12h55.44.841, Motor Sequence Learning,,2025.1.1,None,2025-10-01 12h55.51.742936 +0530,
-150,z,33,33,4,z,1,0.48505445796763524,None,,,,,4,33,33,3,549.347137542034,,549.3381165420287,549.347137542034,550.3368097500061,550.3368097500061,550.3368097500061,550.3368097500061,550.3368097500061,551.3375448340084,551.3375448340084,551.8333132090047,,,,,z,1,0.48505445796763524,None,4,001,2025-10-01_12h55.44.841, Motor Sequence Learning,,2025.1.1,None,2025-10-01 12h55.51.742936 +0530,
150,v,34,34,9,v,1,0.26527245802571997,None,,,,,9,34,34,1,551.8429766669869,,551.8338652920211,551.8429766669869,552.8313142920379,552.8313142920379,552.8313142920379,552.8313142920379,552.8363432920305,553.8311914170044,553.8311914170044,554.099914084014,,,,,v,1,0.26527245802571997,None,4,001,2025-10-01_12h55.44.841, Motor Sequence Learning,,2025.1.1,None,2025-10-01 12h55.51.742936 +0530,
150,v,35,35,10,v,1,0.32329099997878075,None,,,,,10,35,35,1,554.1092505420092,,554.1004989999929,554.1092505420092,555.0979829590069,555.0979829590069,555.0979829590069,555.0979829590069,555.1031492089969,556.0980497089913,556.0980497089913,556.4331395000336,,,,,v,1,0.32329099997878075,None,4,001,2025-10-01_12h55.44.841, Motor Sequence Learning,,2025.1.1,None,2025-10-01 12h55.51.742936 +0530,
-50,x,36,36,10,x,1,0.39443499996559694,None,,,,,10,36,36,0,556.4427722500404,,556.4339336670237,556.4427722500404,557.4313033749931,557.4313033749931,557.4313033749931,557.4313033749931,557.4365749169956,558.4312520420062,558.4312520420062,558.8328145419946,,,,,x,1,0.39443499996559694,None,4,001,2025-10-01_12h55.44.841, Motor Sequence Learning,,2025.1.1,None,2025-10-01 12h55.51.742936 +0530,
-150,z,37,37,5,z,1,0.3989602079964243,None,,,,,5,37,37,3,558.8397882090067,,558.833330375026,558.8397882090067,559.8313809169922,559.8313809169922,559.8313809169922,559.8313809169922,559.8379056670237,560.8312239589868,560.8312239589868,561.2331992500112,,,,,z,1,0.3989602079964243,None,4,001,2025-10-01_12h55.44.841, Motor Sequence Learning,,2025.1.1,None,2025-10-01 12h55.51.742936 +0530,
50,c,38,38,10,c,1,0.32694141601677984,None,,,,,10,38,38,2,561.2414833750227,,561.2337448340259,561.2414833750227,562.2311799590243,562.2311799590243,562.2311799590243,562.2311799590243,562.2355269170366,563.2312642090255,563.2312642090255,563.5667552090017,,,,,c,1,0.32694141601677984,None,4,001,2025-10-01_12h55.44.841, Motor Sequence Learning,,2025.1.1,None,2025-10-01 12h55.51.742936 +0530,
50,c,39,39,11,c,1,0.6156714580138214,None,,,,,11,39,39,2,563.5752737920266,,563.5673282500356,563.5752737920266,564.5645198340062,564.5645198340062,564.5645198340062,564.5645198340062,564.5697001669905,565.5645946250297,565.5645946250297,566.1831542500295,,,,,c,1,0.6156714580138214,None,4,001,2025-10-01_12h55.44.841, Motor Sequence Learning,,2025.1.1,None,2025-10-01 12h55.51.742936 +0530,
-50,x,40,40,11,x,1,0.3538660409976728,None,,,,,11,40,40,0,566.191733625019,,566.1837012090255,566.191733625019,567.1812087500002,567.1812087500002,567.1812087500002,567.1812087500002,567.1864240000141,568.1812671670341,568.1812671670341,568.5387825000216,,,,,x,1,0.3538660409976728,None,4,001,2025-10-01_12h55.44.841, Motor Sequence Learning,,2025.1.1,None,2025-10-01 12h55.51.742936 +0530,
50,c,41,41,12,c,1,0.5121790410485119,None,,,,,12,41,41,2,568.5473093750188,,568.539340791991,568.5473093750188,569.536830416997,569.536830416997,569.536830416997,569.536830416997,569.536830416997,570.5368984590168,570.5368984590168,571.0547847920097,,,,,c,1,0.5121790410485119,None,4,001,2025-10-01_12h55.44.841, Motor Sequence Learning,,2025.1.1,None,2025-10-01 12h55.51.742936 +0530,
150,v,42,42,11,v,1,0.3564552910393104,None,,,,,11,42,42,1,571.0636973750079,,571.0553727920051,571.0636973750079,572.0531004589866,572.0531004589866,572.0531004589866,572.0531004589866,572.0531004589866,573.0536488340003,573.0536488340003,573.4168461670051,,,,,v,1,0.3564552910393104,None,4,001,2025-10-01_12h55.44.841, Motor Sequence Learning,,2025.1.1,None,2025-10-01 12h55.51.742936 +0530,
-150,z,43,43,6,z,1,0.34046641702298075,None,,,,,6,43,43,3,573.4254717089934,,573.4175474590156,573.4254717089934,574.4144873340265,574.4144873340265,574.4144873340265,574.4144873340265,574.4198591249879,575.4145967499935,575.4145967499935,575.7662089589867,,,,,z,1,0.34046641702298075,None,4,001,2025-10-01_12h55.44.841, Motor Sequence Learning,,2025.1.1,None,2025-10-01 12h55.51.742936 +0530,
150,v,44,44,12,v,1,0.5714243749971502,None,,,,,12,44,44,1,575.7735782089876,,575.7666803339962,575.7735782089876,576.764483625011,576.764483625011,576.764483625011,576.764483625011,576.7688772089896,577.7645419590408,577.7645419590408,578.3377152920002,,,,,v,1,0.5714243749971502,None,4,001,2025-10-01_12h55.44.841, Motor Sequence Learning,,2025.1.1,None,2025-10-01 12h55.51.742936 +0530,
50,c,45,45,13,c,1,0.30829287494998425,None,,,,,13,45,45,2,578.3470913339988,,578.338281000033,578.3470913339988,579.3374163749977,579.3374163749977,579.3374163749977,579.3374163749977,579.3374163749977,580.3375207500067,580.3375207500067,580.6499176250072,,,,,c,1,0.30829287494998425,None,4,001,2025-10-01_12h55.44.841, Motor Sequence Learning,,2025.1.1,None,2025-10-01 12h55.51.742936 +0530,
-50,x,46,46,12,x,1,0.2498754160478711,None,,,,,12,46,46,0,580.6587761249975,,580.6504876250401,580.6587761249975,581.6478382920031,581.6478382920031,581.6478382920031,581.6478382920031,581.6526999589987,582.6478957920335,582.6478957920335,582.900026459014,,,,,x,1,0.2498754160478711,None,4,001,2025-10-01_12h55.44.841, Motor Sequence Learning,,2025.1.1,None,2025-10-01 12h55.51.742936 +0530,
-50,x,47,47,13,x,1,0.586994000012055,None,,,,,13,47,47,0,582.9084098340245,,582.9006081250263,582.9084098340245,583.8978554999921,583.8978554999921,583.8978554999921,583.8978554999921,583.9032755420194,584.8977910419926,584.8977910419926,585.489282375027,,,,,x,1,0.586994000012055,None,4,001,2025-10-01_12h55.44.841, Motor Sequence Learning,,2025.1.1,None,2025-10-01 12h55.51.742936 +0530,
-50,x,48,48,14,x,1,0.5528985830023885,None,,,,,14,48,48,0,585.4978504590108,,585.4900189170148,585.4978504590108,586.487188292027,586.487188292027,586.487188292027,586.487188292027,586.487188292027,587.4875503340154,587.4875503340154,588.0499071670347,,,,,x,1,0.5528985830023885,None,4,001,2025-10-01_12h55.44.841, Motor Sequence Learning,,2025.1.1,None,2025-10-01 12h55.51.742936 +0530,
50,c,49,49,14,c,1,0.3039381660055369,None,,,,,14,49,49,2,588.0584327499964,,588.0504459170043,588.0584327499964,589.0478756669909,589.0478756669909,589.0478756669909,589.0478756669909,589.0528643750004,590.0478005839977,590.0478005839977,590.3544947920018,,,,,c,1,0.3039381660055369,None,4,001,2025-10-01_12h55.44.841, Motor Sequence Learning,,2025.1.1,None,2025-10-01 12h55.51.742936 +0530,
