thisN,thisTrialN,thisRepN,mouse.x,mouse.y,mouse.leftButton,mouse.midButton,mouse.rightButton,mouse.time,mouse.clicked_name,trials.thisRepN,trials.thisTrialN,trials.thisN,trials.thisIndex,thisRow.t,notes,num_distr,trial.started,fixation.started,target.started,mouse.started,trial.stopped,trials.mouse.x,trials.mouse.y,trials.mouse.leftButton,trials.mouse.midButton,trials.mouse.rightButton,trials.mouse.time,trials.mouse.clicked_name,participant,session,date,expName,expVersion,psychopyVersion,frameRate,expStart,
0,0,0,[np.float64(-0.08333333333333333)],[np.float64(-0.16833333333333333)],[1],[0],[0],[1.989830583013827],['target'],0,0,0,0,0.015143874974455684,,5,0.008647916984045878,0.015143874974455684,0.015143874974455684,0.008656707999762148,1.9985561669745948,[np.float64(-0.08333333333333333)],[np.float64(-0.16833333333333333)],[1],[0],[0],[1.989830583013827],['target'],4,001,2025-09-28_17h02.33.627,Visual Search Experiment,,2025.1.1,None,2025-09-28 17h02.43.302776 +0530,
1,0,1,[np.float64(-0.3016666666666667)],[np.float64(0.2)],[1],[0],[0],[1.1851388340000995],['target'],1,0,1,0,2.0179794169962406,,5,2.0112237919820473,2.0179794169962406,2.0179794169962406,0.01241987501271069,3.1964297919766977,[np.float64(-0.3016666666666667)],[np.float64(0.2)],[1],[0],[0],[1.1851388340000995],['target'],4,001,2025-09-28_17h02.33.627,Visual Search Experiment,,2025.1.1,None,2025-09-28 17h02.43.302776 +0530,
2,0,2,[np.float64(0.185)],[np.float64(-0.23833333333333334)],[1],[0],[0],[1.7558972080005333],['target'],2,0,2,0,3.2160731669864617,,5,3.208906957996078,3.2160731669864617,3.2160731669864617,0.012301290989853442,4.964852457982488,[np.float64(0.185)],[np.float64(-0.23833333333333334)],[1],[0],[0],[1.7558972080005333],['target'],4,001,2025-09-28_17h02.33.627,Visual Search Experiment,,2025.1.1,None,2025-09-28 17h02.43.302776 +0530,
3,0,3,[np.float64(-0.33166666666666667)],[np.float64(-0.30833333333333335)],[1],[0],[0],[1.7010247919824906],['target'],3,0,3,0,4.985470874991734,,5,4.978668707975885,4.985470874991734,4.985470874991734,0.013627875014208257,6.679750541981775,[np.float64(-0.33166666666666667)],[np.float64(-0.30833333333333335)],[1],[0],[0],[1.7010247919824906],['target'],4,001,2025-09-28_17h02.33.627,Visual Search Experiment,,2025.1.1,None,2025-09-28 17h02.43.302776 +0530,
4,0,4,[np.float64(-0.10333333333333333)],[np.float64(0.335)],[1],[0],[0],[1.68013120899559],['target'],4,0,4,0,6.708612999995239,,10,6.700812750001205,6.708612999995239,6.708612999995239,0.020865250000497326,8.380987707991153,[np.float64(-0.10333333333333333)],[np.float64(0.335)],[1],[0],[0],[1.68013120899559],['target'],4,001,2025-09-28_17h02.33.627,Visual Search Experiment,,2025.1.1,None,2025-09-28 17h02.43.302776 +0530,
5,0,5,[np.float64(0.1)],[np.float64(-0.06)],[1],[0],[0],[0.9728301250142977],['target'],5,0,5,0,8.398999416996958,,5,8.392369207984302,8.398999416996958,8.398999416996958,0.011215457983780652,9.36525945799076,[np.float64(0.1)],[np.float64(-0.06)],[1],[0],[0],[0.9728301250142977],['target'],4,001,2025-09-28_17h02.33.627,Visual Search Experiment,,2025.1.1,None,2025-09-28 17h02.43.302776 +0530,
6,0,6,[np.float64(0.006666666666666667)],[np.float64(0.09166666666666666)],[1],[0],[0],[0.87442424998153],['target'],6,0,6,0,9.39717149999342,,10,9.388407291990006,9.39717149999342,9.39717149999342,0.022958499990636483,10.262873332976596,[np.float64(0.006666666666666667)],[np.float64(0.09166666666666666)],[1],[0],[0],[0.87442424998153],['target'],4,001,2025-09-28_17h02.33.627,Visual Search Experiment,,2025.1.1,None,2025-09-28 17h02.43.302776 +0530,
7,0,7,[np.float64(-0.11333333333333333)],[np.float64(-0.37)],[1],[0],[0],[1.5424080830125604],['target'],7,0,7,0,10.280037541990168,,5,10.273888666997664,10.280037541990168,10.280037541990168,0.010852708015590906,11.816367999999784,[np.float64(-0.11333333333333333)],[np.float64(-0.37)],[1],[0],[0],[1.5424080830125604],['target'],4,001,2025-09-28_17h02.33.627,Visual Search Experiment,,2025.1.1,None,2025-09-28 17h02.43.302776 +0530,
8,0,8,[np.float64(-0.035)],[np.float64(-0.16166666666666665)],[1],[0],[0],[1.0247195420088246],['target'],8,0,8,0,11.847518166992813,,10,11.838624083000468,11.847518166992813,11.847518166992813,0.022068167018005624,12.863389124977402,[np.float64(-0.035)],[np.float64(-0.16166666666666665)],[1],[0],[0],[1.0247195420088246],['target'],4,001,2025-09-28_17h02.33.627,Visual Search Experiment,,2025.1.1,None,2025-09-28 17h02.43.302776 +0530,
9,0,9,[np.float64(-0.04666666666666667)],[np.float64(-0.39166666666666666)],[1],[0],[0],[1.040849166980479],['target'],9,0,9,0,12.880575999995926,,5,12.87462679197779,12.880575999995926,12.880575999995926,0.011068124993471429,13.915539457986597,[np.float64(-0.04666666666666667)],[np.float64(-0.39166666666666666)],[1],[0],[0],[1.040849166980479],['target'],4,001,2025-09-28_17h02.33.627,Visual Search Experiment,,2025.1.1,None,2025-09-28 17h02.43.302776 +0530,
10,0,10,[np.float64(0.02)],[np.float64(-0.04833333333333333)],[1],[0],[0],[1.4835717089881655],['target'],10,0,10,0,13.935929667000892,,5,13.929299291979987,13.935929667000892,13.935929667000892,0.01358120798249729,15.41292833298212,[np.float64(0.02)],[np.float64(-0.04833333333333333)],[1],[0],[0],[1.4835717089881655],['target'],4,001,2025-09-28_17h02.33.627,Visual Search Experiment,,2025.1.1,None,2025-09-28 17h02.43.302776 +0530,
11,0,11,[np.float64(-0.205)],[np.float64(-0.18833333333333332)],[1],[0],[0],[1.2379633329983335],['target'],11,0,11,0,15.432362041989109,,5,15.42563254199922,15.432362041989109,15.432362041989109,0.01251933298772201,16.663658249977743,[np.float64(-0.205)],[np.float64(-0.18833333333333332)],[1],[0],[0],[1.2379633329983335],['target'],4,001,2025-09-28_17h02.33.627,Visual Search Experiment,,2025.1.1,None,2025-09-28 17h02.43.302776 +0530,
12,0,12,[np.float64(-0.41833333333333333)],[np.float64(-0.085)],[1],[0],[0],[1.3529990419920068],['target'],12,0,12,0,16.683738332998473,,5,16.677010457991855,16.683738332998473,16.683738332998473,0.0131660409970209,18.030065624974668,[np.float64(-0.41833333333333333)],[np.float64(-0.085)],[1],[0],[0],[1.3529990419920068],['target'],4,001,2025-09-28_17h02.33.627,Visual Search Experiment,,2025.1.1,None,2025-09-28 17h02.43.302776 +0530,
13,0,13,[np.float64(0.225)],[np.float64(0.35)],[1],[0],[0],[1.0965153330180328],['target'],13,0,13,0,18.059035874990514,,10,18.050696833000984,18.059035874990514,18.059035874990514,0.02046412500203587,19.147265707986662,[np.float64(0.225)],[np.float64(0.35)],[1],[0],[0],[1.0965153330180328],['target'],4,001,2025-09-28_17h02.33.627,Visual Search Experiment,,2025.1.1,None,2025-09-28 17h02.43.302776 +0530,
14,0,14,[np.float64(0.11666666666666667)],[np.float64(0.35)],[1],[0],[0],[1.0409586660098284],['target'],14,0,14,0,19.164047041995218,,5,19.158039374975488,19.164047041995218,19.164047041995218,0.010604458017041907,20.199082082981477,[np.float64(0.11666666666666667)],[np.float64(0.35)],[1],[0],[0],[1.0409586660098284],['target'],4,001,2025-09-28_17h02.33.627,Visual Search Experiment,,2025.1.1,None,2025-09-28 17h02.43.302776 +0530,
15,0,15,[np.float64(0.4816666666666667)],[np.float64(0.25833333333333336)],[1],[0],[0],[1.5013213750207797],['target'],15,0,15,0,20.219472083001165,,5,20.21295766698313,20.219472083001165,20.219472083001165,0.013625209016026929,21.714332707982976,[np.float64(0.4816666666666667)],[np.float64(0.25833333333333336)],[1],[0],[0],[1.5013213750207797],['target'],4,001,2025-09-28_17h02.33.627,Visual Search Experiment,,2025.1.1,None,2025-09-28 17h02.43.302776 +0530,
16,0,16,[np.float64(0.49833333333333335)],[np.float64(0.03833333333333333)],[1],[0],[0],[1.7515436249959748],['target'],16,0,16,0,21.734808957990026,,5,21.72796945797745,21.734808957990026,21.734808957990026,0.013475416984874755,23.479567207978107,[np.float64(0.49833333333333335)],[np.float64(0.03833333333333333)],[1],[0],[0],[1.7515436249959748],['target'],4,001,2025-09-28_17h02.33.627,Visual Search Experiment,,2025.1.1,None,2025-09-28 17h02.43.302776 +0530,
17,0,17,[np.float64(0.27166666666666667)],[np.float64(-0.2)],[1],[0],[0],[2.229715582972858],['target'],17,0,17,0,23.50919049998629,,10,23.50094287499087,23.50919049998629,23.50919049998629,0.021153916022740304,25.730699541978538,[np.float64(0.27166666666666667)],[np.float64(-0.2)],[1],[0],[0],[2.229715582972858],['target'],4,001,2025-09-28_17h02.33.627,Visual Search Experiment,,2025.1.1,None,2025-09-28 17h02.43.302776 +0530,
18,0,18,[np.float64(-0.14333333333333334)],[np.float64(-0.44)],[1],[0],[0],[1.3373661669902503],['target'],18,0,18,0,25.74858933300129,,5,25.742190749995643,25.74858933300129,25.74858933300129,0.011319624987663701,27.0796133329859,[np.float64(-0.14333333333333334)],[np.float64(-0.44)],[1],[0],[0],[1.3373661669902503],['target'],4,001,2025-09-28_17h02.33.627,Visual Search Experiment,,2025.1.1,None,2025-09-28 17h02.43.302776 +0530,
19,0,19,[np.float64(0.08)],[np.float64(0.3516666666666667)],[1],[0],[0],[1.0893332500127144],['target'],19,0,19,0,27.09873395797331,,5,27.09212324998225,27.09873395797331,27.09873395797331,0.01233483399846591,28.181517874996644,[np.float64(0.08)],[np.float64(0.3516666666666667)],[1],[0],[0],[1.0893332500127144],['target'],4,001,2025-09-28_17h02.33.627,Visual Search Experiment,,2025.1.1,None,2025-09-28 17h02.43.302776 +0530,
20,0,20,[np.float64(-0.46)],[np.float64(-0.07166666666666667)],[1],[0],[0],[2.2047046660154592],['target'],20,0,20,0,28.201189541985514,,5,28.19457224998041,28.201189541985514,28.201189541985514,0.0128718750202097,30.399367499980144,[np.float64(-0.46)],[np.float64(-0.07166666666666667)],[1],[0],[0],[2.2047046660154592],['target'],4,001,2025-09-28_17h02.33.627,Visual Search Experiment,,2025.1.1,None,2025-09-28 17h02.43.302776 +0530,
21,0,21,[np.float64(-0.1)],[np.float64(0.03333333333333333)],[1],[0],[0],[1.6823737079976127],['target'],21,0,21,0,30.42053812497761,,5,30.413744874997064,30.42053812497761,30.42053812497761,0.014139916020212695,32.09617791697383,[np.float64(-0.1)],[np.float64(0.03333333333333333)],[1],[0],[0],[1.6823737079976127],['target'],4,001,2025-09-28_17h02.33.627,Visual Search Experiment,,2025.1.1,None,2025-09-28 17h02.43.302776 +0530,
22,0,22,[np.float64(-0.44)],[np.float64(0.06166666666666667)],[1],[0],[0],[2.3791036670154426],['target'],22,0,22,0,32.1260727919871,,10,32.11756270797923,32.1260727919871,32.1260727919871,0.021207665995461866,34.49670716698165,[np.float64(-0.44)],[np.float64(0.06166666666666667)],[1],[0],[0],[2.3791036670154426],['target'],4,001,2025-09-28_17h02.33.627,Visual Search Experiment,,2025.1.1,None,2025-09-28 17h02.43.302776 +0530,
23,0,23,[np.float64(-0.45166666666666666)],[np.float64(-0.065)],[1],[0],[0],[2.5749779589823447],['target'],23,0,23,0,34.51314187498065,,5,34.50688449997688,34.51314187498065,34.51314187498065,0.010011000005761161,37.081926499988185,[np.float64(-0.45166666666666666)],[np.float64(-0.065)],[1],[0],[0],[2.5749779589823447],['target'],4,001,2025-09-28_17h02.33.627,Visual Search Experiment,,2025.1.1,None,2025-09-28 17h02.43.302776 +0530,
24,0,24,[np.float64(-0.10666666666666667)],[np.float64(0.25666666666666665)],[1],[0],[0],[0.8845907080103643],['target'],24,0,24,0,37.10160174997873,,5,37.094780749990605,37.10160174997873,37.10160174997873,0.012673082994297147,37.979432583000744,[np.float64(-0.10666666666666667)],[np.float64(0.25666666666666665)],[1],[0],[0],[0.8845907080103643],['target'],4,001,2025-09-28_17h02.33.627,Visual Search Experiment,,2025.1.1,None,2025-09-28 17h02.43.302776 +0530,
25,0,25,[np.float64(-0.495)],[np.float64(-0.24166666666666667)],[1],[0],[0],[1.7711809999891557],['target'],25,0,25,0,37.99846437497763,,5,37.99178741697688,37.99846437497763,37.99846437497763,0.012171416019555181,39.76302699997905,[np.float64(-0.495)],[np.float64(-0.24166666666666667)],[1],[0],[0],[1.7711809999891557],['target'],4,001,2025-09-28_17h02.33.627,Visual Search Experiment,,2025.1.1,None,2025-09-28 17h02.43.302776 +0530,
26,0,26,[np.float64(0.285)],[np.float64(0.05)],[1],[0],[0],[2.495838958013337],['target'],26,0,26,0,39.79407920798985,,10,39.785238541982835,39.79407920798985,39.79407920798985,0.022030584019375965,42.281130374991335,[np.float64(0.285)],[np.float64(0.05)],[1],[0],[0],[2.495838958013337],['target'],4,001,2025-09-28_17h02.33.627,Visual Search Experiment,,2025.1.1,None,2025-09-28 17h02.43.302776 +0530,
27,0,27,[np.float64(-0.42)],[np.float64(-0.15333333333333332)],[1],[0],[0],[1.4053557079751045],['target'],27,0,27,0,42.29980262499885,,5,42.293046541977674,42.29980262499885,42.29980262499885,0.011712166015058756,43.69846741697984,[np.float64(-0.42)],[np.float64(-0.15333333333333332)],[1],[0],[0],[1.4053557079751045],['target'],4,001,2025-09-28_17h02.33.627,Visual Search Experiment,,2025.1.1,None,2025-09-28 17h02.43.302776 +0530,
28,0,28,[np.float64(0.22833333333333333)],[np.float64(-0.145)],[1],[0],[0],[1.5762849580205511],['target'],28,0,28,0,43.72924779198365,,10,43.72064279197366,43.72924779198365,43.72924779198365,0.021999624994350597,45.29697129197302,[np.float64(0.22833333333333333)],[np.float64(-0.145)],[1],[0],[0],[1.5762849580205511],['target'],4,001,2025-09-28_17h02.33.627,Visual Search Experiment,,2025.1.1,None,2025-09-28 17h02.43.302776 +0530,
29,0,29,[np.float64(0.12833333333333333)],[np.float64(0.12333333333333334)],[1],[0],[0],[1.398567041993374],['target'],29,0,29,0,45.32437766698422,,10,45.31633666699054,45.32437766698422,45.32437766698422,0.01918862501042895,46.71494395798072,[np.float64(0.12833333333333333)],[np.float64(0.12333333333333334)],[1],[0],[0],[1.398567041993374],['target'],4,001,2025-09-28_17h02.33.627,Visual Search Experiment,,2025.1.1,None,2025-09-28 17h02.43.302776 +0530,
30,0,30,[np.float64(0.12666666666666668)],[np.float64(0.07)],[1],[0],[0],[0.8103790830064099],['target'],30,0,30,0,46.7457101669861,,10,46.73688066698378,46.7457101669861,46.7457101669861,0.021742416982306167,47.54730833298527,[np.float64(0.12666666666666668)],[np.float64(0.07)],[1],[0],[0],[0.8103790830064099],['target'],4,001,2025-09-28_17h02.33.627,Visual Search Experiment,,2025.1.1,None,2025-09-28 17h02.43.302776 +0530,
31,0,31,[np.float64(-0.285)],[np.float64(0.34833333333333333)],[1],[0],[0],[1.490115041990066],['target'],31,0,31,0,47.56498620798811,,5,47.558616207999876,47.56498620798811,47.56498620798811,0.011138999980175868,49.04879529197933,[np.float64(-0.285)],[np.float64(0.34833333333333333)],[1],[0],[0],[1.490115041990066],['target'],4,001,2025-09-28_17h02.33.627,Visual Search Experiment,,2025.1.1,None,2025-09-28 17h02.43.302776 +0530,
32,0,32,[np.float64(0.005)],[np.float64(-0.07666666666666666)],[1],[0],[0],[2.0185390830156393],['target'],32,0,32,0,49.0678408749809,,5,49.06121395798982,49.0678408749809,49.0678408749809,0.012240875017596409,51.07982174999779,[np.float64(0.005)],[np.float64(-0.07666666666666666)],[1],[0],[0],[2.0185390830156393],['target'],4,001,2025-09-28_17h02.33.627,Visual Search Experiment,,2025.1.1,None,2025-09-28 17h02.43.302776 +0530,
33,0,33,[np.float64(0.14333333333333334)],[np.float64(0.3233333333333333)],[1],[0],[0],[1.6198764579894487],['target'],33,0,33,0,51.099648666975554,,5,51.092962582973996,51.099648666975554,51.099648666975554,0.012952332996064797,52.71289995798725,[np.float64(0.14333333333333334)],[np.float64(0.3233333333333333)],[1],[0],[0],[1.6198764579894487],['target'],4,001,2025-09-28_17h02.33.627,Visual Search Experiment,,2025.1.1,None,2025-09-28 17h02.43.302776 +0530,
34,0,34,[np.float64(0.025)],[np.float64(0.03166666666666667)],[1],[0],[0],[1.6732499999925494],['target'],34,0,34,0,52.73147499997867,,5,52.724835249973694,52.73147499997867,52.73147499997867,0.011757416999898851,54.39814199999091,[np.float64(0.025)],[np.float64(0.03166666666666667)],[1],[0],[0],[1.6732499999925494],['target'],4,001,2025-09-28_17h02.33.627,Visual Search Experiment,,2025.1.1,None,2025-09-28 17h02.43.302776 +0530,
35,0,35,[np.float64(-0.3516666666666667)],[np.float64(-0.2633333333333333)],[1],[0],[0],[2.1025271250109654],['target'],35,0,35,0,54.417859624983976,,5,54.4109695419902,54.417859624983976,54.417859624983976,0.012664457986829802,56.51355666699237,[np.float64(-0.3516666666666667)],[np.float64(-0.2633333333333333)],[1],[0],[0],[2.1025271250109654],['target'],4,001,2025-09-28_17h02.33.627,Visual Search Experiment,,2025.1.1,None,2025-09-28 17h02.43.302776 +0530,
36,0,36,[np.float64(-0.305)],[np.float64(-0.16166666666666665)],[1],[0],[0],[0.8971108330006246],['target'],36,0,36,0,56.541720999986865,,10,56.53363983298186,56.541720999986865,56.541720999986865,0.01992212500772439,57.430790999991586,[np.float64(-0.305)],[np.float64(-0.16166666666666665)],[1],[0],[0],[0.8971108330006246],['target'],4,001,2025-09-28_17h02.33.627,Visual Search Experiment,,2025.1.1,None,2025-09-28 17h02.43.302776 +0530,
37,0,37,[np.float64(0.36833333333333335)],[np.float64(-0.13833333333333334)],[1],[0],[0],[1.771965874999296],['target'],37,0,37,0,57.44781366697862,,5,57.44161337497644,57.44781366697862,57.44781366697862,0.010654167010216042,59.21364487498067,[np.float64(0.36833333333333335)],[np.float64(-0.13833333333333334)],[1],[0],[0],[1.771965874999296],['target'],4,001,2025-09-28_17h02.33.627,Visual Search Experiment,,2025.1.1,None,2025-09-28 17h02.43.302776 +0530,
38,0,38,[np.float64(0.39166666666666666)],[np.float64(0.23833333333333334)],[1],[0],[0],[1.494313791015884],['target'],38,0,38,0,59.244379582989495,,10,59.23582695799996,59.244379582989495,59.244379582989495,0.02200366699253209,60.7301797499822,[np.float64(0.39166666666666666)],[np.float64(0.23833333333333334)],[1],[0],[0],[1.494313791015884],['target'],4,001,2025-09-28_17h02.33.627,Visual Search Experiment,,2025.1.1,None,2025-09-28 17h02.43.302776 +0530,
39,0,39,[np.float64(-0.37166666666666665)],[np.float64(-0.24333333333333335)],[1],[0],[0],[1.9640611249778885],['target'],39,0,39,0,60.757832541974494,,10,60.74981041697902,60.757832541974494,60.757832541974494,0.019454708002740517,62.71393079200061,[np.float64(-0.37166666666666665)],[np.float64(-0.24333333333333335)],[1],[0],[0],[1.9640611249778885],['target'],4,001,2025-09-28_17h02.33.627,Visual Search Experiment,,2025.1.1,None,2025-09-28 17h02.43.302776 +0530,
40,0,40,[np.float64(-0.495)],[np.float64(0.395)],[1],[0],[0],[2.857114999991609],['target'],40,0,40,0,62.73187849999522,,5,62.725245707988506,62.73187849999522,62.73187849999522,0.01114458401571028,65.5824262079841,[np.float64(-0.495)],[np.float64(0.395)],[1],[0],[0],[2.857114999991609],['target'],4,001,2025-09-28_17h02.33.627,Visual Search Experiment,,2025.1.1,None,2025-09-28 17h02.43.302776 +0530,
41,0,41,[np.float64(-0.21)],[np.float64(0.4083333333333333)],[1],[0],[0],[1.1024417089938652],['target'],41,0,41,0,65.60295824997593,,5,65.59608774998924,65.60295824997593,65.60295824997593,0.013487374992109835,66.69859854198876,[np.float64(-0.21)],[np.float64(0.4083333333333333)],[1],[0],[0],[1.1024417089938652],['target'],4,001,2025-09-28_17h02.33.627,Visual Search Experiment,,2025.1.1,None,2025-09-28 17h02.43.302776 +0530,
42,0,42,[np.float64(-0.4066666666666667)],[np.float64(0.435)],[1],[0],[0],[1.0026786249945872],['target'],42,0,42,0,66.7183308749809,,5,66.71154633298283,66.7183308749809,66.7183308749809,0.01276979097747244,67.71428508299869,[np.float64(-0.4066666666666667)],[np.float64(0.435)],[1],[0],[0],[1.0026786249945872],['target'],4,001,2025-09-28_17h02.33.627,Visual Search Experiment,,2025.1.1,None,2025-09-28 17h02.43.302776 +0530,
43,0,43,[np.float64(-0.11166666666666666)],[np.float64(0.09333333333333334)],[1],[0],[0],[2.2452225839952007],['target'],43,0,43,0,67.74348208299489,,10,67.73495199999888,67.74348208299489,67.74348208299489,0.020488084002863616,69.98021833298844,[np.float64(-0.11166666666666666)],[np.float64(0.09333333333333334)],[1],[0],[0],[2.2452225839952007],['target'],4,001,2025-09-28_17h02.33.627,Visual Search Experiment,,2025.1.1,None,2025-09-28 17h02.43.302776 +0530,
44,0,44,[np.float64(0.3233333333333333)],[np.float64(0.23666666666666666)],[1],[0],[0],[2.730763833009405],['target'],44,0,44,0,70.00701524998294,,10,69.99965958297253,70.00701524998294,70.00701524998294,0.019270541990408674,72.73047379197669,[np.float64(0.3233333333333333)],[np.float64(0.23666666666666666)],[1],[0],[0],[2.730763833009405],['target'],4,001,2025-09-28_17h02.33.627,Visual Search Experiment,,2025.1.1,None,2025-09-28 17h02.43.302776 +0530,
45,0,45,[np.float64(-0.13166666666666665)],[np.float64(0.22833333333333333)],[1],[0],[0],[1.498552250006469],['target'],45,0,45,0,72.75584829199943,,10,72.74864691699622,72.75584829199943,72.75584829199943,0.017990042018936947,74.24724516697461,[np.float64(-0.13166666666666665)],[np.float64(0.22833333333333333)],[1],[0],[0],[1.498552250006469],['target'],4,001,2025-09-28_17h02.33.627,Visual Search Experiment,,2025.1.1,None,2025-09-28 17h02.43.302776 +0530,
46,0,46,[np.float64(0.43666666666666665)],[np.float64(0.021666666666666667)],[1],[0],[0],[1.3469107080018148],['target'],46,0,46,0,74.27513554197503,,10,74.26699670800008,74.27513554197503,74.27513554197503,0.019584541994845495,75.61395149998134,[np.float64(0.43666666666666665)],[np.float64(0.021666666666666667)],[1],[0],[0],[1.3469107080018148],['target'],4,001,2025-09-28_17h02.33.627,Visual Search Experiment,,2025.1.1,None,2025-09-28 17h02.43.302776 +0530,
47,0,47,[np.float64(0.305)],[np.float64(0.34)],[1],[0],[0],[2.363968791993102],['target'],47,0,47,0,75.64118608299759,,10,75.63353437499609,75.64118608299759,75.64118608299759,0.019411500019486994,77.9975484579918,[np.float64(0.305)],[np.float64(0.34)],[1],[0],[0],[2.363968791993102],['target'],4,001,2025-09-28_17h02.33.627,Visual Search Experiment,,2025.1.1,None,2025-09-28 17h02.43.302776 +0530,
48,0,48,[np.float64(0.03333333333333333)],[np.float64(-0.11333333333333333)],[1],[0],[0],[1.2886560409970116],['target'],48,0,48,0,78.01489774999209,,5,78.00863108297926,78.01489774999209,78.01489774999209,0.010913874983089045,79.29734541699872,[np.float64(0.03333333333333333)],[np.float64(-0.11333333333333333)],[1],[0],[0],[1.2886560409970116],['target'],4,001,2025-09-28_17h02.33.627,Visual Search Experiment,,2025.1.1,None,2025-09-28 17h02.43.302776 +0530,
49,0,49,[np.float64(0.095)],[np.float64(-0.31)],[1],[0],[0],[1.4609473340096883],['target'],49,0,49,0,79.32760641697678,,10,79.31928291698569,79.32760641697678,79.32760641697678,0.02175312498002313,80.78026429199963,[np.float64(0.095)],[np.float64(-0.31)],[1],[0],[0],[1.4609473340096883],['target'],4,001,2025-09-28_17h02.33.627,Visual Search Experiment,,2025.1.1,None,2025-09-28 17h02.43.302776 +0530,
50,0,50,[np.float64(0.465)],[np.float64(-0.023333333333333334)],[1],[0],[0],[1.2156755829928443],['target'],50,0,50,0,80.80536629198468,,10,80.79831099999137,80.80536629198468,80.80536629198468,0.017904959007864818,82.01404324997566,[np.float64(0.465)],[np.float64(-0.023333333333333334)],[1],[0],[0],[1.2156755829928443],['target'],4,001,2025-09-28_17h02.33.627,Visual Search Experiment,,2025.1.1,None,2025-09-28 17h02.43.302776 +0530,
51,0,51,[np.float64(0.47833333333333333)],[np.float64(0.3383333333333333)],[1],[0],[0],[4.065371332981158],['target'],51,0,51,0,82.04026333297952,,10,82.03292683299514,82.04026333297952,82.04026333297952,0.0187151659920346,86.098341874982,[np.float64(0.47833333333333333)],[np.float64(0.3383333333333333)],[1],[0],[0],[4.065371332981158],['target'],4,001,2025-09-28_17h02.33.627,Visual Search Experiment,,2025.1.1,None,2025-09-28 17h02.43.302776 +0530,
52,0,52,[np.float64(-0.47833333333333333)],[np.float64(0.09833333333333333)],[1],[0],[0],[2.7698881659889594],['target'],52,0,52,0,86.11662970797624,,5,86.11001199999009,86.11662970797624,86.11662970797624,0.011505791975650936,88.87996441699215,[np.float64(-0.47833333333333333)],[np.float64(0.09833333333333333)],[1],[0],[0],[2.7698881659889594],['target'],4,001,2025-09-28_17h02.33.627,Visual Search Experiment,,2025.1.1,None,2025-09-28 17h02.43.302776 +0530,
53,0,53,[np.float64(-0.3616666666666667)],[np.float64(0.22833333333333333)],[1],[0],[0],[1.137789000000339],['target'],53,0,53,0,88.89850462498725,,5,88.8918832919735,88.89850462498725,88.89850462498725,0.011727875011274591,90.02971999999136,[np.float64(-0.3616666666666667)],[np.float64(0.22833333333333333)],[1],[0],[0],[1.137789000000339],['target'],4,001,2025-09-28_17h02.33.627,Visual Search Experiment,,2025.1.1,None,2025-09-28 17h02.43.302776 +0530,
54,0,54,[np.float64(-0.09166666666666666)],[np.float64(0.27666666666666667)],[1],[0],[0],[1.138602874998469],['target'],54,0,54,0,90.04760866699507,,5,90.0411034579738,90.04760866699507,90.04760866699507,0.011250791983911768,91.17977408299339,[np.float64(-0.09166666666666666)],[np.float64(0.27666666666666667)],[1],[0],[0],[1.138602874998469],['target'],4,001,2025-09-28_17h02.33.627,Visual Search Experiment,,2025.1.1,None,2025-09-28 17h02.43.302776 +0530,
55,0,55,[np.float64(-0.20166666666666666)],[np.float64(-0.011666666666666667)],[1],[0],[0],[1.3386226249858737],['target'],55,0,55,0,91.197674791998,,5,91.19120474997908,91.197674791998,91.197674791998,0.01129766702069901,92.52988829198875,[np.float64(-0.20166666666666666)],[np.float64(-0.011666666666666667)],[1],[0],[0],[1.3386226249858737],['target'],4,001,2025-09-28_17h02.33.627,Visual Search Experiment,,2025.1.1,None,2025-09-28 17h02.43.302776 +0530,
56,0,56,[np.float64(-0.06833333333333333)],[np.float64(0.12166666666666667)],[1],[0],[0],[0.9628919590031728],['target'],56,0,56,0,92.55947412498062,,10,92.5507132919738,92.55947412498062,92.55947412498062,0.020626624987926334,93.51364779198775,[np.float64(-0.06833333333333333)],[np.float64(0.12166666666666667)],[1],[0],[0],[0.9628919590031728],['target'],4,001,2025-09-28_17h02.33.627,Visual Search Experiment,,2025.1.1,None,2025-09-28 17h02.43.302776 +0530,
57,0,57,[np.float64(0.021666666666666667)],[np.float64(0.23)],[1],[0],[0],[1.0558415839914232],['target'],57,0,57,0,93.53127012497862,,5,93.52480412498699,93.53127012497862,93.53127012497862,0.010984582972014323,94.58071358298184,[np.float64(0.021666666666666667)],[np.float64(0.23)],[1],[0],[0],[1.0558415839914232],['target'],4,001,2025-09-28_17h02.33.627,Visual Search Experiment,,2025.1.1,None,2025-09-28 17h02.43.302776 +0530,
58,0,58,[np.float64(-0.41)],[np.float64(0.06166666666666667)],[1],[0],[0],[1.1954149170196615],['target'],58,0,58,0,94.60930520799593,,10,94.60168391698971,94.60930520799593,94.60930520799593,0.02077820900012739,95.79713733299286,[np.float64(-0.41)],[np.float64(0.06166666666666667)],[1],[0],[0],[1.1954149170196615],['target'],4,001,2025-09-28_17h02.33.627,Visual Search Experiment,,2025.1.1,None,2025-09-28 17h02.43.302776 +0530,
59,0,59,[np.float64(-0.30833333333333335)],[np.float64(0.22)],[1],[0],[0],[1.063654708006652],['target'],59,0,59,0,95.82414033298846,,10,95.81672204198549,95.82414033298846,95.82414033298846,0.01941458400688134,96.8804179999861,[np.float64(-0.30833333333333335)],[np.float64(0.22)],[1],[0],[0],[1.063654708006652],['target'],4,001,2025-09-28_17h02.33.627,Visual Search Experiment,,2025.1.1,None,2025-09-28 17h02.43.302776 +0530,
60,0,60,[np.float64(0.03333333333333333)],[np.float64(-0.15666666666666668)],[1],[0],[0],[1.572277833998669],['target'],60,0,60,0,96.8974113749864,,5,96.89100754199899,96.8974113749864,96.8974113749864,0.010423416999401525,98.46334487499553,[np.float64(0.03333333333333333)],[np.float64(-0.15666666666666668)],[1],[0],[0],[1.572277833998669],['target'],4,001,2025-09-28_17h02.33.627,Visual Search Experiment,,2025.1.1,None,2025-09-28 17h02.43.302776 +0530,
61,0,61,[np.float64(-0.24333333333333335)],[np.float64(-0.3466666666666667)],[1],[0],[0],[1.8067088749958202],['target'],61,0,61,0,98.48127624997869,,5,98.47446845797822,98.48127624997869,98.48127624997869,0.010973999975249171,100.28123629197944,[np.float64(-0.24333333333333335)],[np.float64(-0.3466666666666667)],[1],[0],[0],[1.8067088749958202],['target'],4,001,2025-09-28_17h02.33.627,Visual Search Experiment,,2025.1.1,None,2025-09-28 17h02.43.302776 +0530,
62,0,62,[np.float64(0.08166666666666667)],[np.float64(-0.3233333333333333)],[1],[0],[0],[1.5026553340139799],['target'],62,0,62,0,100.30126841698075,,5,100.29445845799637,100.30126841698075,100.30126841698075,0.013050083012785763,101.79717158299172,[np.float64(0.08166666666666667)],[np.float64(-0.3233333333333333)],[1],[0],[0],[1.5026553340139799],['target'],4,001,2025-09-28_17h02.33.627,Visual Search Experiment,,2025.1.1,None,2025-09-28 17h02.43.302776 +0530,
63,0,63,[np.float64(-0.20833333333333334)],[np.float64(0.09666666666666666)],[1],[0],[0],[1.9290267080068588],['target'],63,0,63,0,101.82660429200041,,10,101.81828170799417,101.82660429200041,101.82660429200041,0.02093875000718981,103.74735658298596,[np.float64(-0.20833333333333334)],[np.float64(0.09666666666666666)],[1],[0],[0],[1.9290267080068588],['target'],4,001,2025-09-28_17h02.33.627,Visual Search Experiment,,2025.1.1,None,2025-09-28 17h02.43.302776 +0530,
64,0,64,[np.float64(-0.18)],[np.float64(0.48)],[1],[0],[0],[2.64779325001291],['target'],64,0,64,0,103.7734524999978,,10,103.76586204199702,103.7734524999978,103.7734524999978,0.018327208003029227,106.41369158297312,[np.float64(-0.18)],[np.float64(0.48)],[1],[0],[0],[2.64779325001291],['target'],4,001,2025-09-28_17h02.33.627,Visual Search Experiment,,2025.1.1,None,2025-09-28 17h02.43.302776 +0530,
65,0,65,[np.float64(-0.16)],[np.float64(-0.4666666666666667)],[1],[0],[0],[1.4733382499834988],['target'],65,0,65,0,106.43066470799386,,5,106.42379229198559,106.43066470799386,106.43066470799386,0.00996116700116545,107.89719062499353,[np.float64(-0.16)],[np.float64(-0.4666666666666667)],[1],[0],[0],[1.4733382499834988],['target'],4,001,2025-09-28_17h02.33.627,Visual Search Experiment,,2025.1.1,None,2025-09-28 17h02.43.302776 +0530,
66,0,66,[np.float64(0.10333333333333333)],[np.float64(-0.445)],[1],[0],[0],[2.146830042009242],['target'],66,0,66,0,107.92553258297266,,10,107.91712104197359,107.92553258297266,107.92553258297266,0.019768416008446366,110.06398091698065,[np.float64(0.10333333333333333)],[np.float64(-0.445)],[1],[0],[0],[2.146830042009242],['target'],4,001,2025-09-28_17h02.33.627,Visual Search Experiment,,2025.1.1,None,2025-09-28 17h02.43.302776 +0530,
67,0,67,[np.float64(0.45)],[np.float64(0.22166666666666668)],[1],[0],[0],[2.13952104197233],['target'],67,0,67,0,110.0802469170012,,5,110.07394183299039,110.0802469170012,110.0802469170012,0.00982583299628459,112.21352599997772,[np.float64(0.45)],[np.float64(0.22166666666666668)],[1],[0],[0],[2.13952104197233],['target'],4,001,2025-09-28_17h02.33.627,Visual Search Experiment,,2025.1.1,None,2025-09-28 17h02.43.302776 +0530,
68,0,68,[np.float64(0.09)],[np.float64(-0.31666666666666665)],[1],[0],[0],[2.0550867080164608],['target'],68,0,68,0,112.23240704199998,,5,112.22537529197871,112.23240704199998,112.23240704199998,0.01166758401086554,114.28052174998447,[np.float64(0.09)],[np.float64(-0.31666666666666665)],[1],[0],[0],[2.0550867080164608],['target'],4,001,2025-09-28_17h02.33.627,Visual Search Experiment,,2025.1.1,None,2025-09-28 17h02.43.302776 +0530,
69,0,69,[np.float64(-0.39166666666666666)],[np.float64(-0.07833333333333334)],[1],[0],[0],[2.1123948330059648],['target'],69,0,69,0,114.30922366699087,,10,114.30103341699578,114.30922366699087,114.30922366699087,0.020333124994067475,116.41346262500156,[np.float64(-0.39166666666666666)],[np.float64(-0.07833333333333334)],[1],[0],[0],[2.1123948330059648],['target'],4,001,2025-09-28_17h02.33.627,Visual Search Experiment,,2025.1.1,None,2025-09-28 17h02.43.302776 +0530,
70,0,70,[np.float64(-0.40166666666666667)],[np.float64(-0.06)],[1],[0],[0],[1.5399990839941893],['target'],70,0,70,0,116.42996749997837,,5,116.42355804197723,116.42996749997837,116.42996749997837,0.00995645800139755,117.96360941699822,[np.float64(-0.40166666666666667)],[np.float64(-0.06)],[1],[0],[0],[1.5399990839941893],['target'],4,001,2025-09-28_17h02.33.627,Visual Search Experiment,,2025.1.1,None,2025-09-28 17h02.43.302776 +0530,
71,0,71,[np.float64(0.425)],[np.float64(0.24333333333333335)],[1],[0],[0],[1.873017500009155],['target'],71,0,71,0,117.98120770798414,,5,117.97481708298437,117.98120770798414,117.98120770798414,0.011056415998609737,119.84789087498211,[np.float64(0.425)],[np.float64(0.24333333333333335)],[1],[0],[0],[1.873017500009155],['target'],4,001,2025-09-28_17h02.33.627,Visual Search Experiment,,2025.1.1,None,2025-09-28 17h02.43.302776 +0530,
72,0,72,[np.float64(0.011666666666666667)],[np.float64(-0.11333333333333333)],[1],[0],[0],[1.778373625013046],['target'],72,0,72,0,119.87718849998782,,10,119.8687679169816,119.87718849998782,119.87718849998782,0.020710709010018036,121.64718145798543,[np.float64(0.011666666666666667)],[np.float64(-0.11333333333333333)],[1],[0],[0],[1.778373625013046],['target'],4,001,2025-09-28_17h02.33.627,Visual Search Experiment,,2025.1.1,None,2025-09-28 17h02.43.302776 +0530,
73,0,73,[np.float64(-0.17)],[np.float64(0.18)],[1],[0],[0],[1.040427500003716],['target'],73,0,73,0,121.66283962497255,,5,121.65670912497444,121.66283962497255,121.66283962497255,0.009384208009578288,122.69719729200006,[np.float64(-0.17)],[np.float64(0.18)],[1],[0],[0],[1.040427500003716],['target'],4,001,2025-09-28_17h02.33.627,Visual Search Experiment,,2025.1.1,None,2025-09-28 17h02.43.302776 +0530,
74,0,74,[np.float64(0.29)],[np.float64(-0.06166666666666667)],[1],[0],[0],[1.2056846669875085],['target'],74,0,74,0,122.71548641700065,,5,122.70888091699453,122.71548641700065,122.71548641700065,0.011517916980665177,123.91463445799309,[np.float64(0.29)],[np.float64(-0.06166666666666667)],[1],[0],[0],[1.2056846669875085],['target'],4,001,2025-09-28_17h02.33.627,Visual Search Experiment,,2025.1.1,None,2025-09-28 17h02.43.302776 +0530,
75,0,75,[np.float64(-0.35333333333333333)],[np.float64(-0.14833333333333334)],[1],[0],[0],[1.8120891250146087],['target'],75,0,75,0,123.94387120800093,,10,123.93525170799694,123.94387120800093,123.94387120800093,0.020440916006918997,125.74738499999512,[np.float64(-0.35333333333333333)],[np.float64(-0.14833333333333334)],[1],[0],[0],[1.8120891250146087],['target'],4,001,2025-09-28_17h02.33.627,Visual Search Experiment,,2025.1.1,None,2025-09-28 17h02.43.302776 +0530,
76,0,76,[np.float64(0.095)],[np.float64(0.37166666666666665)],[1],[0],[0],[1.2980631249956787],['target'],76,0,76,0,125.77333679198637,,10,125.76593037499697,125.77333679198637,125.77333679198637,0.018366790987784043,127.06404083297821,[np.float64(0.095)],[np.float64(0.37166666666666665)],[1],[0],[0],[1.2980631249956787],['target'],4,001,2025-09-28_17h02.33.627,Visual Search Experiment,,2025.1.1,None,2025-09-28 17h02.43.302776 +0530,
77,0,77,[np.float64(0.38666666666666666)],[np.float64(0.37333333333333335)],[1],[0],[0],[1.665293500002008],['target'],77,0,77,0,127.08961212498252,,10,127.08207312499871,127.08961212498252,127.08961212498252,0.017858207982499152,128.74741658297717,[np.float64(0.38666666666666666)],[np.float64(0.37333333333333335)],[1],[0],[0],[1.665293500002008],['target'],4,001,2025-09-28_17h02.33.627,Visual Search Experiment,,2025.1.1,None,2025-09-28 17h02.43.302776 +0530,
78,0,78,[np.float64(0.44333333333333336)],[np.float64(0.31)],[1],[0],[0],[0.8479392500012182],[None],78,0,78,0,128.77250866699615,,10,128.76550258297357,128.77250866699615,128.77250866699615,0.01791291599511169,129.61347849998856,[np.float64(0.44333333333333336)],[np.float64(0.31)],[1],[0],[0],[0.8479392500012182],[None],4,001,2025-09-28_17h02.33.627,Visual Search Experiment,,2025.1.1,None,2025-09-28 17h02.43.302776 +0530,
79,0,79,[np.float64(-0.27)],[np.float64(0.12333333333333334)],[1],[0],[0],[1.57299737498397],['target'],79,0,79,0,129.62993333299528,,5,129.6233806249802,129.62993333299528,129.62993333299528,0.009765583003172651,131.19642708299216,[np.float64(-0.27)],[np.float64(0.12333333333333334)],[1],[0],[0],[1.57299737498397],['target'],4,001,2025-09-28_17h02.33.627,Visual Search Experiment,,2025.1.1,None,2025-09-28 17h02.43.302776 +0530,
80,0,80,[np.float64(-0.3383333333333333)],[np.float64(0.14166666666666666)],[1],[0],[0],[0.7396152910077944],['target'],80,0,80,0,131.2144328749855,,5,131.20792483299738,131.2144328749855,131.2144328749855,0.011364292004145682,131.94760174999828,[np.float64(-0.3383333333333333)],[np.float64(0.14166666666666666)],[1],[0],[0],[0.7396152910077944],['target'],4,001,2025-09-28_17h02.33.627,Visual Search Experiment,,2025.1.1,None,2025-09-28 17h02.43.302776 +0530,
81,0,81,[np.float64(0.3233333333333333)],[np.float64(-0.24666666666666667)],[1],[0],[0],[2.2453403330000583],['target'],81,0,81,0,131.97703187499428,,10,131.96846549998736,131.97703187499428,131.97703187499428,0.020689083001343533,134.21385104197543,[np.float64(0.3233333333333333)],[np.float64(-0.24666666666666667)],[1],[0],[0],[2.2453403330000583],['target'],4,001,2025-09-28_17h02.33.627,Visual Search Experiment,,2025.1.1,None,2025-09-28 17h02.43.302776 +0530,
82,0,82,[np.float64(0.4716666666666667)],[np.float64(-0.01)],[1],[0],[0],[1.6394757499801926],['target'],82,0,82,0,134.2307091249968,,5,134.22410187497735,134.2307091249968,134.2307091249968,0.010108499991474673,135.86363770798198,[np.float64(0.4716666666666667)],[np.float64(-0.01)],[1],[0],[0],[1.6394757499801926],['target'],4,001,2025-09-28_17h02.33.627,Visual Search Experiment,,2025.1.1,None,2025-09-28 17h02.43.302776 +0530,
83,0,83,[np.float64(0.215)],[np.float64(-0.17)],[1],[0],[0],[1.5211421249841806],['target'],83,0,83,0,135.8827476669976,,5,135.8758817499911,135.8827476669976,135.8827476669976,0.012011499988147989,137.39711237497977,[np.float64(0.215)],[np.float64(-0.17)],[1],[0],[0],[1.5211421249841806],['target'],4,001,2025-09-28_17h02.33.627,Visual Search Experiment,,2025.1.1,None,2025-09-28 17h02.43.302776 +0530,
84,0,84,[np.float64(-0.14333333333333334)],[np.float64(-0.26166666666666666)],[1],[0],[0],[2.937788459006697],['target'],84,0,84,0,137.4160233750008,,5,137.40920662498684,137.4160233750008,137.4160233750008,0.01191408300655894,140.34706899998127,[np.float64(-0.14333333333333334)],[np.float64(-0.26166666666666666)],[1],[0],[0],[2.937788459006697],['target'],4,001,2025-09-28_17h02.33.627,Visual Search Experiment,,2025.1.1,None,2025-09-28 17h02.43.302776 +0530,
85,0,85,[np.float64(-0.41333333333333333)],[np.float64(0.14833333333333334)],[1],[0],[0],[2.4290879579784814],['target'],85,0,85,0,140.37702795799123,,10,140.36817837497802,140.37702795799123,140.37702795799123,0.020918708003591746,142.7973238749837,[np.float64(-0.41333333333333333)],[np.float64(0.14833333333333334)],[1],[0],[0],[2.4290879579784814],['target'],4,001,2025-09-28_17h02.33.627,Visual Search Experiment,,2025.1.1,None,2025-09-28 17h02.43.302776 +0530,
86,0,86,[np.float64(-0.23)],[np.float64(-0.18833333333333332)],[1],[0],[0],[1.8398408750072122],['target'],86,0,86,0,142.81484770798124,,5,142.8083487499971,142.81484770798124,142.81484770798124,0.010848999983863905,144.64824754197616,[np.float64(-0.23)],[np.float64(-0.18833333333333332)],[1],[0],[0],[1.8398408750072122],['target'],4,001,2025-09-28_17h02.33.627,Visual Search Experiment,,2025.1.1,None,2025-09-28 17h02.43.302776 +0530,
87,0,87,[np.float64(0.016666666666666666)],[np.float64(-0.27)],[1],[0],[0],[1.0103152500232682],['target'],87,0,87,0,144.67892070798553,,10,144.6701323329762,144.67892070798553,144.67892070798553,0.021723750018281862,145.68048812498455,[np.float64(0.016666666666666666)],[np.float64(-0.27)],[1],[0],[0],[1.0103152500232682],['target'],4,001,2025-09-28_17h02.33.627,Visual Search Experiment,,2025.1.1,None,2025-09-28 17h02.43.302776 +0530,
88,0,88,[np.float64(-0.275)],[np.float64(-0.39)],[1],[0],[0],[1.3882961249910295],['target'],88,0,88,0,145.69867008298752,,5,145.69186087499838,145.69867008298752,145.69867008298752,0.011215834005270153,147.08021920800093,[np.float64(-0.275)],[np.float64(-0.39)],[1],[0],[0],[1.3882961249910295],['target'],4,001,2025-09-28_17h02.33.627,Visual Search Experiment,,2025.1.1,None,2025-09-28 17h02.43.302776 +0530,
89,0,89,[np.float64(-0.24833333333333332)],[np.float64(0.3516666666666667)],[1],[0],[0],[1.9219493339769542],['target'],89,0,89,0,147.09871295798803,,5,147.09188383299625,147.09871295798803,147.09871295798803,0.011483500013127923,149.0139049999998,[np.float64(-0.24833333333333332)],[np.float64(0.3516666666666667)],[1],[0],[0],[1.9219493339769542],['target'],4,001,2025-09-28_17h02.33.627,Visual Search Experiment,,2025.1.1,None,2025-09-28 17h02.43.302776 +0530,
90,0,90,[np.float64(-0.11333333333333333)],[np.float64(-0.18833333333333332)],[1],[0],[0],[1.8375455829955172],['target'],90,0,90,0,149.0331652079767,,5,149.02622095798142,149.0331652079767,149.0331652079767,0.012128792004659772,150.8638345419895,[np.float64(-0.11333333333333333)],[np.float64(-0.18833333333333332)],[1],[0],[0],[1.8375455829955172],['target'],4,001,2025-09-28_17h02.33.627,Visual Search Experiment,,2025.1.1,None,2025-09-28 17h02.43.302776 +0530,
91,0,91,[np.float64(-0.04833333333333333)],[np.float64(0.39166666666666666)],[1],[0],[0],[1.4136067089857534],['target'],91,0,91,0,150.8923043749819,,10,150.88370983299683,150.8923043749819,150.8923043749819,0.01969558300334029,152.29735783298383,[np.float64(-0.04833333333333333)],[np.float64(0.39166666666666666)],[1],[0],[0],[1.4136067089857534],['target'],4,001,2025-09-28_17h02.33.627,Visual Search Experiment,,2025.1.1,None,2025-09-28 17h02.43.302776 +0530,
92,0,92,[np.float64(0.016666666666666666)],[np.float64(-0.215)],[1],[0],[0],[1.2471157090039924],['target'],92,0,92,0,152.32347104197834,,10,152.3162949999969,152.32347104197834,152.32347104197834,0.018775666976580396,153.56344687499222,[np.float64(0.016666666666666666)],[np.float64(-0.215)],[1],[0],[0],[1.2471157090039924],['target'],4,001,2025-09-28_17h02.33.627,Visual Search Experiment,,2025.1.1,None,2025-09-28 17h02.43.302776 +0530,
93,0,93,[np.float64(0.295)],[np.float64(-0.16666666666666666)],[1],[0],[0],[2.7162876249931287],['target'],93,0,93,0,153.58809799997834,,10,153.5810435829917,153.58809799997834,153.58809799997834,0.017457750014727935,156.29736845797743,[np.float64(0.295)],[np.float64(-0.16666666666666666)],[1],[0],[0],[2.7162876249931287],['target'],4,001,2025-09-28_17h02.33.627,Visual Search Experiment,,2025.1.1,None,2025-09-28 17h02.43.302776 +0530,
94,0,94,[np.float64(0.37166666666666665)],[np.float64(0.12666666666666668)],[1],[0],[0],[1.208867499983171],['target'],94,0,94,0,156.31333837498096,,5,156.30718104197877,156.31333837498096,156.31333837498096,0.009676333982497454,157.51611212498392,[np.float64(0.37166666666666665)],[np.float64(0.12666666666666668)],[1],[0],[0],[1.208867499983171],['target'],4,001,2025-09-28_17h02.33.627,Visual Search Experiment,,2025.1.1,None,2025-09-28 17h02.43.302776 +0530,
95,0,95,[np.float64(-0.305)],[np.float64(-0.08)],[1],[0],[0],[1.975783458998194],['target'],95,0,95,0,157.5467250419897,,10,157.5378378329915,157.5467250419897,157.5467250419897,0.02155445798416622,159.51366545798373,[np.float64(-0.305)],[np.float64(-0.08)],[1],[0],[0],[1.975783458998194],['target'],4,001,2025-09-28_17h02.33.627,Visual Search Experiment,,2025.1.1,None,2025-09-28 17h02.43.302776 +0530,
96,0,96,[np.float64(0.31333333333333335)],[np.float64(0.1)],[1],[0],[0],[1.6057478330039885],['target'],96,0,96,0,159.53033912499086,,5,159.52410712497658,159.53033912499086,159.53033912499086,0.010260790993925184,161.1299176249886,[np.float64(0.31333333333333335)],[np.float64(0.1)],[1],[0],[0],[1.6057478330039885],['target'],4,001,2025-09-28_17h02.33.627,Visual Search Experiment,,2025.1.1,None,2025-09-28 17h02.43.302776 +0530,
97,0,97,[np.float64(-0.31666666666666665)],[np.float64(0.415)],[1],[0],[0],[1.905807792005362],['target'],97,0,97,0,161.14758291697945,,5,161.14119166697492,161.14758291697945,161.14758291697945,0.011137791007058695,163.04706016698037,[np.float64(-0.31666666666666665)],[np.float64(0.415)],[1],[0],[0],[1.905807792005362],['target'],4,001,2025-09-28_17h02.33.627,Visual Search Experiment,,2025.1.1,None,2025-09-28 17h02.43.302776 +0530,
98,0,98,[np.float64(0.19166666666666668)],[np.float64(0.39666666666666667)],[1],[0],[0],[2.0625323340063915],['target'],98,0,98,0,163.07604066698696,,10,163.06771520798793,163.07604066698696,163.07604066698696,0.02047541699721478,165.13029995799297,[np.float64(0.19166666666666668)],[np.float64(0.39666666666666667)],[1],[0],[0],[2.0625323340063915],['target'],4,001,2025-09-28_17h02.33.627,Visual Search Experiment,,2025.1.1,None,2025-09-28 17h02.43.302776 +0530,
99,0,99,[np.float64(-0.06833333333333333)],[np.float64(-0.15666666666666668)],[1],[0],[0],[1.8322209999896586],['target'],99,0,99,0,165.1559282919916,,10,165.14835366699845,165.1559282919916,165.1559282919916,0.017890459013869986,166.98062024998944,[np.float64(-0.06833333333333333)],[np.float64(-0.15666666666666668)],[1],[0],[0],[1.8322209999896586],['target'],4,001,2025-09-28_17h02.33.627,Visual Search Experiment,,2025.1.1,None,2025-09-28 17h02.43.302776 +0530,
100,0,100,[np.float64(-0.10833333333333334)],[np.float64(-0.19333333333333333)],[1],[0],[0],[0.9148416250245646],['target'],100,0,100,0,167.00578137498815,,10,166.99857666698517,167.00578137498815,167.00578137498815,0.017776332999346778,167.91345362499123,[np.float64(-0.10833333333333334)],[np.float64(-0.19333333333333333)],[1],[0],[0],[0.9148416250245646],['target'],4,001,2025-09-28_17h02.33.627,Visual Search Experiment,,2025.1.1,None,2025-09-28 17h02.43.302776 +0530,
101,0,101,[np.float64(0.27166666666666667)],[np.float64(-0.39166666666666666)],[1],[0],[0],[1.3411444170051254],['target'],101,0,101,0,167.92992816699552,,5,167.9235466249811,167.92992816699552,167.92992816699552,0.009952125023119152,169.2647514999844,[np.float64(0.27166666666666667)],[np.float64(-0.39166666666666666)],[1],[0],[0],[1.3411444170051254],['target'],4,001,2025-09-28_17h02.33.627,Visual Search Experiment,,2025.1.1,None,2025-09-28 17h02.43.302776 +0530,
102,0,102,[np.float64(-0.2783333333333333)],[np.float64(-0.25666666666666665)],[1],[0],[0],[1.503355749999173],['target'],102,0,102,0,169.28381604197784,,5,169.2768905419798,169.28381604197784,169.28381604197784,0.011972582986345515,170.78029691698612,[np.float64(-0.2783333333333333)],[np.float64(-0.25666666666666665)],[1],[0],[0],[1.503355749999173],['target'],4,001,2025-09-28_17h02.33.627,Visual Search Experiment,,2025.1.1,None,2025-09-28 17h02.43.302776 +0530,
103,0,103,[np.float64(0.485)],[np.float64(-0.15666666666666668)],[1],[0],[0],[1.856259708001744],['target'],103,0,103,0,170.79867604197352,,5,170.79196020797826,170.79867604197352,170.79867604197352,0.011512666998896748,172.64828549997765,[np.float64(0.485)],[np.float64(-0.15666666666666668)],[1],[0],[0],[1.856259708001744],['target'],4,001,2025-09-28_17h02.33.627,Visual Search Experiment,,2025.1.1,None,2025-09-28 17h02.43.302776 +0530,
104,0,104,[np.float64(-0.021666666666666667)],[np.float64(-0.115)],[1],[0],[0],[1.1439618750009686],['target'],104,0,104,0,172.67878112499602,,10,172.6696519999823,172.67878112499602,172.67878112499602,0.02122699999017641,173.81364908299292,[np.float64(-0.021666666666666667)],[np.float64(-0.115)],[1],[0],[0],[1.1439618750009686],['target'],4,001,2025-09-28_17h02.33.627,Visual Search Experiment,,2025.1.1,None,2025-09-28 17h02.43.302776 +0530,
105,0,105,[np.float64(-0.3)],[np.float64(-0.01)],[1],[0],[0],[1.9068631250120234],['target'],105,0,105,0,173.829634832975,,5,173.82339654199313,173.829634832975,173.829634832975,0.009608291991753504,175.730313499982,[np.float64(-0.3)],[np.float64(-0.01)],[1],[0],[0],[1.9068631250120234],['target'],4,001,2025-09-28_17h02.33.627,Visual Search Experiment,,2025.1.1,None,2025-09-28 17h02.43.302776 +0530,
106,0,106,[np.float64(0.0)],[np.float64(-0.36)],[1],[0],[0],[1.6223656669899356],['target'],106,0,106,0,175.74799987499136,,5,175.74128304197802,175.74799987499136,175.74799987499136,0.010826334008015692,177.36371574999066,[np.float64(0.0)],[np.float64(-0.36)],[1],[0],[0],[1.6223656669899356],['target'],4,001,2025-09-28_17h02.33.627,Visual Search Experiment,,2025.1.1,None,2025-09-28 17h02.43.302776 +0530,
107,0,107,[np.float64(0.24)],[np.float64(0.42)],[1],[0],[0],[3.0803394579852466],['target'],107,0,107,0,177.3920395829773,,10,177.38345933298115,177.3920395829773,177.3920395829773,0.01957591698737815,180.46384370798478,[np.float64(0.24)],[np.float64(0.42)],[1],[0],[0],[3.0803394579852466],['target'],4,001,2025-09-28_17h02.33.627,Visual Search Experiment,,2025.1.1,None,2025-09-28 17h02.43.302776 +0530,
108,0,108,[np.float64(0.23833333333333334)],[np.float64(-0.36666666666666664)],[1],[0],[0],[1.8746880409889854],['target'],108,0,108,0,180.4807291670004,,5,180.47445737497765,180.4807291670004,180.4807291670004,0.010435833013616502,182.34921629200107,[np.float64(0.23833333333333334)],[np.float64(-0.36666666666666664)],[1],[0],[0],[1.8746880409889854],['target'],4,001,2025-09-28_17h02.33.627,Visual Search Experiment,,2025.1.1,None,2025-09-28 17h02.43.302776 +0530,
109,0,109,[np.float64(-0.3383333333333333)],[np.float64(0.07666666666666666)],[1],[0],[0],[1.708691124978941],['target'],109,0,109,0,182.37988654198125,,10,182.37091779199545,182.37988654198125,182.37988654198125,0.02152495802147314,184.0796439999831,[np.float64(-0.3383333333333333)],[np.float64(0.07666666666666666)],[1],[0],[0],[1.708691124978941],['target'],4,001,2025-09-28_17h02.33.627,Visual Search Experiment,,2025.1.1,None,2025-09-28 17h02.43.302776 +0530,
110,0,110,[np.float64(0.28)],[np.float64(-0.44)],[1],[0],[0],[2.8010808329854626],['target'],110,0,110,0,184.10378858298645,,10,184.09661324997433,184.10378858298645,184.10378858298645,0.016823874990222976,186.8977463329793,[np.float64(0.28)],[np.float64(-0.44)],[1],[0],[0],[2.8010808329854626],['target'],4,001,2025-09-28_17h02.33.627,Visual Search Experiment,,2025.1.1,None,2025-09-28 17h02.43.302776 +0530,
111,0,111,[np.float64(0.205)],[np.float64(0.475)],[1],[0],[0],[2.9710423329961486],['target'],111,0,111,0,186.9155544579844,,5,186.90914324999903,186.9155544579844,186.9155544579844,0.011228874995140359,189.88024620799115,[np.float64(0.205)],[np.float64(0.475)],[1],[0],[0],[2.9710423329961486],['target'],4,001,2025-09-28_17h02.33.627,Visual Search Experiment,,2025.1.1,None,2025-09-28 17h02.43.302776 +0530,
112,0,112,[np.float64(0.43)],[np.float64(0.27)],[1],[0],[0],[1.9298307920107618],['target'],112,0,112,0,189.90947654200136,,10,189.9007942499884,189.90947654200136,189.90947654200136,0.020339832990430295,191.83066787497955,[np.float64(0.43)],[np.float64(0.27)],[1],[0],[0],[1.9298307920107618],['target'],4,001,2025-09-28_17h02.33.627,Visual Search Experiment,,2025.1.1,None,2025-09-28 17h02.43.302776 +0530,
113,0,113,[np.float64(0.09)],[np.float64(0.37833333333333335)],[1],[0],[0],[1.3802664579998236],['target'],113,0,113,0,191.85753924999153,,10,191.8500282499881,191.85753924999153,191.85753924999153,0.019164583005476743,193.23034333297983,[np.float64(0.09)],[np.float64(0.37833333333333335)],[1],[0],[0],[1.3802664579998236],['target'],4,001,2025-09-28_17h02.33.627,Visual Search Experiment,,2025.1.1,None,2025-09-28 17h02.43.302776 +0530,
114,0,114,[np.float64(-0.45166666666666666)],[np.float64(0.18833333333333332)],[1],[0],[0],[1.9981567909999285],['target'],114,0,114,0,193.25671566699748,,10,193.24903183299466,193.25671566699748,193.25671566699748,0.018521042016800493,195.24724170798436,[np.float64(-0.45166666666666666)],[np.float64(0.18833333333333332)],[1],[0],[0],[1.9981567909999285],['target'],4,001,2025-09-28_17h02.33.627,Visual Search Experiment,,2025.1.1,None,2025-09-28 17h02.43.302776 +0530,
115,0,115,[np.float64(0.36)],[np.float64(0.16)],[1],[0],[0],[1.7900799170020036],['target'],115,0,115,0,195.26447608298622,,5,195.25796533297398,195.26447608298622,195.26447608298622,0.010550707986112684,197.04810424998868,[np.float64(0.36)],[np.float64(0.16)],[1],[0],[0],[1.7900799170020036],['target'],4,001,2025-09-28_17h02.33.627,Visual Search Experiment,,2025.1.1,None,2025-09-28 17h02.43.302776 +0530,
116,0,116,[np.float64(0.255)],[np.float64(-0.23833333333333334)],[1],[0],[0],[1.6700799999816809],['target'],116,0,116,0,197.06832420799765,,5,197.06129766697995,197.06832420799765,197.06832420799765,0.013036874996032566,198.73143329197774,[np.float64(0.255)],[np.float64(-0.23833333333333334)],[1],[0],[0],[1.6700799999816809],['target'],4,001,2025-09-28_17h02.33.627,Visual Search Experiment,,2025.1.1,None,2025-09-28 17h02.43.302776 +0530,
117,0,117,[np.float64(0.47333333333333333)],[np.float64(-0.19833333333333333)],[1],[0],[0],[1.3605144580069464],['target'],117,0,117,0,198.76209345797542,,10,198.75313849997474,198.76209345797542,198.76209345797542,0.021545416995650157,200.11369733299944,[np.float64(0.47333333333333333)],[np.float64(-0.19833333333333333)],[1],[0],[0],[1.3605144580069464],['target'],4,001,2025-09-28_17h02.33.627,Visual Search Experiment,,2025.1.1,None,2025-09-28 17h02.43.302776 +0530,
118,0,118,[np.float64(0.005)],[np.float64(0.03333333333333333)],[1],[0],[0],[9.247114416008117],['target'],118,0,118,0,200.1395007079991,,10,200.13231516699307,200.1395007079991,200.1395007079991,0.018455458019161597,209.37947045799228,[np.float64(0.005)],[np.float64(0.03333333333333333)],[1],[0],[0],[9.247114416008117],['target'],4,001,2025-09-28_17h02.33.627,Visual Search Experiment,,2025.1.1,None,2025-09-28 17h02.43.302776 +0530,
119,0,119,[np.float64(0.2733333333333333)],[np.float64(0.19666666666666666)],[1],[0],[0],[1.9575192499905825],['target'],119,0,119,0,209.39568237497588,,5,209.38917404197855,209.39568237497588,209.39568237497588,0.009563415980665013,211.34676079198834,[np.float64(0.2733333333333333)],[np.float64(0.19666666666666666)],[1],[0],[0],[1.9575192499905825],['target'],4,001,2025-09-28_17h02.33.627,Visual Search Experiment,,2025.1.1,None,2025-09-28 17h02.43.302776 +0530,
120,0,120,[np.float64(-0.46166666666666667)],[np.float64(-0.4033333333333333)],[1],[0],[0],[2.2293496249767486],['target'],120,0,120,0,211.3764254169946,,10,211.36764991699602,211.3764254169946,211.3764254169946,0.020704374997876585,213.5970419169753,[np.float64(-0.46166666666666667)],[np.float64(-0.4033333333333333)],[1],[0],[0],[2.2293496249767486],['target'],4,001,2025-09-28_17h02.33.627,Visual Search Experiment,,2025.1.1,None,2025-09-28 17h02.43.302776 +0530,
121,0,121,[np.float64(-0.20166666666666666)],[np.float64(0.31666666666666665)],[1],[0],[0],[1.6895399579952937],['target'],121,0,121,0,213.61395233299118,,5,213.60725120798452,213.61395233299118,213.61395233299118,0.01005479198647663,215.2968619579915,[np.float64(-0.20166666666666666)],[np.float64(0.31666666666666665)],[1],[0],[0],[1.6895399579952937],['target'],4,001,2025-09-28_17h02.33.627,Visual Search Experiment,,2025.1.1,None,2025-09-28 17h02.43.302776 +0530,
122,0,122,[np.float64(0.30833333333333335)],[np.float64(-0.33)],[1],[0],[0],[1.737536500004353],['target'],122,0,122,0,215.3157832500001,,5,215.30872733297292,215.3157832500001,215.3157832500001,0.011649708991171792,217.04632933298126,[np.float64(0.30833333333333335)],[np.float64(-0.33)],[1],[0],[0],[1.737536500004353],['target'],4,001,2025-09-28_17h02.33.627,Visual Search Experiment,,2025.1.1,None,2025-09-28 17h02.43.302776 +0530,
123,0,123,[np.float64(-0.47833333333333333)],[np.float64(-0.41)],[1],[0],[0],[1.7954512500145938],['target'],123,0,123,0,217.07669145797263,,10,217.06782966697938,217.07669145797263,217.07669145797263,0.02130983301321976,218.8633162920014,[np.float64(-0.47833333333333333)],[np.float64(-0.41)],[1],[0],[0],[1.7954512500145938],['target'],4,001,2025-09-28_17h02.33.627,Visual Search Experiment,,2025.1.1,None,2025-09-28 17h02.43.302776 +0530,
124,0,124,[np.float64(-0.4633333333333333)],[np.float64(0.37)],[1],[0],[0],[2.099191332992632],['target'],124,0,124,0,218.8884136249835,,10,218.88120170799084,218.8884136249835,218.8884136249835,0.017744291020790115,220.98044304197538,[np.float64(-0.4633333333333333)],[np.float64(0.37)],[1],[0],[0],[2.099191332992632],['target'],4,001,2025-09-28_17h02.33.627,Visual Search Experiment,,2025.1.1,None,2025-09-28 17h02.43.302776 +0530,
125,0,125,[np.float64(-0.43333333333333335)],[np.float64(0.16)],[1],[0],[0],[1.0230360410059802],['target'],125,0,125,0,220.99718770798063,,5,220.990667999984,220.99718770798063,220.99718770798063,0.01004487500176765,222.0137990829826,[np.float64(-0.43333333333333335)],[np.float64(0.16)],[1],[0],[0],[1.0230360410059802],['target'],4,001,2025-09-28_17h02.33.627,Visual Search Experiment,,2025.1.1,None,2025-09-28 17h02.43.302776 +0530,
126,0,126,[np.float64(0.16666666666666666)],[np.float64(-0.15833333333333333)],[1],[0],[0],[2.3961583329946734],['target'],126,0,126,0,222.04283858297276,,10,222.03410041698953,222.04283858297276,222.04283858297276,0.020125625014770776,224.4303017499915,[np.float64(0.16666666666666666)],[np.float64(-0.15833333333333333)],[1],[0],[0],[2.3961583329946734],['target'],4,001,2025-09-28_17h02.33.627,Visual Search Experiment,,2025.1.1,None,2025-09-28 17h02.43.302776 +0530,
127,0,127,[np.float64(0.43833333333333335)],[np.float64(-0.3016666666666667)],[1],[0],[0],[1.6807307499984745],['target'],127,0,127,0,224.45752545798314,,10,224.44941104197642,224.45752545798314,224.45752545798314,0.018945957999676466,226.13018770798226,[np.float64(0.43833333333333335)],[np.float64(-0.3016666666666667)],[1],[0],[0],[1.6807307499984745],['target'],4,001,2025-09-28_17h02.33.627,Visual Search Experiment,,2025.1.1,None,2025-09-28 17h02.43.302776 +0530,
128,0,128,[np.float64(0.465)],[np.float64(-0.4116666666666667)],[1],[0],[0],[1.5326220419956371],['target'],128,0,128,0,226.15519229197525,,10,226.14774691697676,226.15519229197525,226.15519229197525,0.01742391599691473,227.6804166669899,[np.float64(0.465)],[np.float64(-0.4116666666666667)],[1],[0],[0],[1.5326220419956371],['target'],4,001,2025-09-28_17h02.33.627,Visual Search Experiment,,2025.1.1,None,2025-09-28 17h02.43.302776 +0530,
129,0,129,[np.float64(-0.36333333333333334)],[np.float64(-0.4033333333333333)],[1],[0],[0],[2.2395452079945244],['target'],129,0,129,0,227.69731241697446,,5,227.69070837498293,227.69731241697446,227.69731241697446,0.010131125018233433,229.93031183298444,[np.float64(-0.36333333333333334)],[np.float64(-0.4033333333333333)],[1],[0],[0],[2.2395452079945244],['target'],4,001,2025-09-28_17h02.33.627,Visual Search Experiment,,2025.1.1,None,2025-09-28 17h02.43.302776 +0530,
130,0,130,[np.float64(0.42833333333333334)],[np.float64(-0.43)],[1],[0],[0],[1.9214327079826035],['target'],130,0,130,0,229.94904037498054,,5,229.94203799997922,229.94904037498054,229.94904037498054,0.011572291987249628,231.86353704199428,[np.float64(0.42833333333333334)],[np.float64(-0.43)],[1],[0],[0],[1.9214327079826035],['target'],4,001,2025-09-28_17h02.33.627,Visual Search Experiment,,2025.1.1,None,2025-09-28 17h02.43.302776 +0530,
131,0,131,[np.float64(-0.11333333333333333)],[np.float64(-0.028333333333333332)],[1],[0],[0],[1.4290830419922713],['target'],131,0,131,0,231.89235595799983,,10,231.8839808749908,231.89235595799983,231.89235595799983,0.020280124997952953,233.3130966249737,[np.float64(-0.11333333333333333)],[np.float64(-0.028333333333333332)],[1],[0],[0],[1.4290830419922713],['target'],4,001,2025-09-28_17h02.33.627,Visual Search Experiment,,2025.1.1,None,2025-09-28 17h02.43.302776 +0530,
132,0,132,[np.float64(-0.015)],[np.float64(0.185)],[1],[0],[0],[1.1820622909872327],['target'],132,0,132,0,233.3383559579961,,10,233.3310897499905,233.3383559579961,233.3383559579961,0.01785899998503737,234.5132019169978,[np.float64(-0.015)],[np.float64(0.185)],[1],[0],[0],[1.1820622909872327],['target'],4,001,2025-09-28_17h02.33.627,Visual Search Experiment,,2025.1.1,None,2025-09-28 17h02.43.302776 +0530,
133,0,133,[np.float64(-0.09833333333333333)],[np.float64(0.20666666666666667)],[1],[0],[0],[1.1648026669863611],['target'],133,0,133,0,234.53866408299655,,10,234.53147120799986,234.53866408299655,234.53866408299655,0.018103457987308502,235.69631995799136,[np.float64(-0.09833333333333333)],[np.float64(0.20666666666666667)],[1],[0],[0],[1.1648026669863611],['target'],4,001,2025-09-28_17h02.33.627,Visual Search Experiment,,2025.1.1,None,2025-09-28 17h02.43.302776 +0530,
134,0,134,[np.float64(0.0033333333333333335)],[np.float64(-0.21)],[1],[0],[0],[1.533377624989953],['target'],134,0,134,0,235.72190974999103,,10,235.71445479197428,235.72190974999103,235.72190974999103,0.017970749991945922,237.24788070798968,[np.float64(0.0033333333333333335)],[np.float64(-0.21)],[1],[0],[0],[1.533377624989953],['target'],4,001,2025-09-28_17h02.33.627,Visual Search Experiment,,2025.1.1,None,2025-09-28 17h02.43.302776 +0530,
135,0,135,[np.float64(-0.2916666666666667)],[np.float64(-0.08166666666666667)],[1],[0],[0],[1.6209829160070512],['target'],135,0,135,0,237.26536829199176,,5,237.25897520798026,237.26536829199176,237.26536829199176,0.010937290993751958,238.88002345798304,[np.float64(-0.2916666666666667)],[np.float64(-0.08166666666666667)],[1],[0],[0],[1.6209829160070512],['target'],4,001,2025-09-28_17h02.33.627,Visual Search Experiment,,2025.1.1,None,2025-09-28 17h02.43.302776 +0530,
136,0,136,[np.float64(-0.17333333333333334)],[np.float64(-0.48333333333333334)],[1],[0],[0],[3.1457418330246583],['target'],136,0,136,0,238.910184791981,,10,238.9013001669955,238.910184791981,238.910184791981,0.021093707997351885,242.04708608298097,[np.float64(-0.17333333333333334)],[np.float64(-0.48333333333333334)],[1],[0],[0],[3.1457418330246583],['target'],4,001,2025-09-28_17h02.33.627,Visual Search Experiment,,2025.1.1,None,2025-09-28 17h02.43.302776 +0530,
137,0,137,[np.float64(-0.47833333333333333)],[np.float64(-0.45666666666666667)],[1],[0],[0],[1.9728892910061404],['target'],137,0,137,0,242.06382229199517,,5,242.0573129580007,242.06382229199517,242.06382229199517,0.010063874971820042,244.03025604199502,[np.float64(-0.47833333333333333)],[np.float64(-0.45666666666666667)],[1],[0],[0],[1.9728892910061404],['target'],4,001,2025-09-28_17h02.33.627,Visual Search Experiment,,2025.1.1,None,2025-09-28 17h02.43.302776 +0530,
138,0,138,[np.float64(-0.245)],[np.float64(0.11)],[1],[0],[0],[1.4541722499998286],['target'],138,0,138,0,244.04877774999477,,5,244.042096707999,244.04877774999477,244.04877774999477,0.01169704197673127,245.49632891698275,[np.float64(-0.245)],[np.float64(0.11)],[1],[0],[0],[1.4541722499998286],['target'],4,001,2025-09-28_17h02.33.627,Visual Search Experiment,,2025.1.1,None,2025-09-28 17h02.43.302776 +0530,
139,0,139,[np.float64(0.34)],[np.float64(0.08666666666666667)],[1],[0],[0],[1.5970634580007754],['target'],139,0,139,0,245.5246338750003,,10,245.51657241699286,245.5246338750003,245.5246338750003,0.020078749977983534,247.11367874999996,[np.float64(0.34)],[np.float64(0.08666666666666667)],[1],[0],[0],[1.5970634580007754],['target'],4,001,2025-09-28_17h02.33.627,Visual Search Experiment,,2025.1.1,None,2025-09-28 17h02.43.302776 +0530,
140,0,140,[np.float64(0.08)],[np.float64(0.24)],[1],[0],[0],[2.3732468750094995],['target'],140,0,140,0,247.13104887498775,,5,247.12466941698221,247.13104887498775,247.13104887498775,0.010822459007613361,249.49797416699585,[np.float64(0.08)],[np.float64(0.24)],[1],[0],[0],[2.3732468750094995],['target'],4,001,2025-09-28_17h02.33.627,Visual Search Experiment,,2025.1.1,None,2025-09-28 17h02.43.302776 +0530,
141,0,141,[np.float64(-0.24166666666666667)],[np.float64(0.03)],[1],[0],[0],[1.569886665995],['target'],141,0,141,0,249.51808049998363,,5,249.51106224997784,249.51808049998363,249.51808049998363,0.012930333003168926,251.0809985829983,[np.float64(-0.24166666666666667)],[np.float64(0.03)],[1],[0],[0],[1.569886665995],['target'],4,001,2025-09-28_17h02.33.627,Visual Search Experiment,,2025.1.1,None,2025-09-28 17h02.43.302776 +0530,
142,0,142,[np.float64(-0.115)],[np.float64(-0.37333333333333335)],[1],[0],[0],[1.4686075000208803],['target'],142,0,142,0,251.10118974998477,,5,251.09429641699535,251.10118974998477,251.10118974998477,0.013138999987859279,252.5629638749815,[np.float64(-0.115)],[np.float64(-0.37333333333333335)],[1],[0],[0],[1.4686075000208803],['target'],4,001,2025-09-28_17h02.33.627,Visual Search Experiment,,2025.1.1,None,2025-09-28 17h02.43.302776 +0530,
143,0,143,[np.float64(-0.09333333333333334)],[np.float64(-0.37666666666666665)],[1],[0],[0],[1.006275874999119],['target'],143,0,143,0,252.58163920798688,,5,252.57484045799356,252.58163920798688,252.58163920798688,0.01170308401924558,253.58117845800007,[np.float64(-0.09333333333333334)],[np.float64(-0.37666666666666665)],[1],[0],[0],[1.006275874999119],['target'],4,001,2025-09-28_17h02.33.627,Visual Search Experiment,,2025.1.1,None,2025-09-28 17h02.43.302776 +0530,
144,0,144,[np.float64(0.3933333333333333)],[np.float64(0.08333333333333333)],[1],[0],[0],[1.5116091670060996],['target'],144,0,144,0,253.61005491699325,,10,253.6017146249942,253.61005491699325,253.61005491699325,0.02037608399405144,255.11336362498696,[np.float64(0.3933333333333333)],[np.float64(0.08333333333333333)],[1],[0],[0],[1.5116091670060996],['target'],4,001,2025-09-28_17h02.33.627,Visual Search Experiment,,2025.1.1,None,2025-09-28 17h02.43.302776 +0530,
145,0,145,[np.float64(0.44166666666666665)],[np.float64(-0.165)],[1],[0],[0],[1.3553689589898568],['target'],145,0,145,0,255.1309863749775,,5,255.12438683299115,255.1309863749775,255.1309863749775,0.010849040991161019,256.47981570797856,[np.float64(0.44166666666666665)],[np.float64(-0.165)],[1],[0],[0],[1.3553689589898568],['target'],4,001,2025-09-28_17h02.33.627,Visual Search Experiment,,2025.1.1,None,2025-09-28 17h02.43.302776 +0530,
146,0,146,[np.float64(-0.2733333333333333)],[np.float64(0.38166666666666665)],[1],[0],[0],[2.371631415997399],['target'],146,0,146,0,256.49818316698656,,5,256.4914037079725,256.49818316698656,256.49818316698656,0.011412916996050626,258.8630979579757,[np.float64(-0.2733333333333333)],[np.float64(0.38166666666666665)],[1],[0],[0],[2.371631415997399],['target'],4,001,2025-09-28_17h02.33.627,Visual Search Experiment,,2025.1.1,None,2025-09-28 17h02.43.302776 +0530,
147,0,147,[np.float64(0.0033333333333333335)],[np.float64(-0.335)],[1],[0],[0],[1.9544322919973638],['target'],147,0,147,0,258.8817651249992,,5,258.8748757499852,258.8817651249992,258.8817651249992,0.011600958998315036,260.8293615419825,[np.float64(0.0033333333333333335)],[np.float64(-0.335)],[1],[0],[0],[1.9544322919973638],['target'],4,001,2025-09-28_17h02.33.627,Visual Search Experiment,,2025.1.1,None,2025-09-28 17h02.43.302776 +0530,
148,0,148,[np.float64(-0.39666666666666667)],[np.float64(0.365)],[1],[0],[0],[3.1400510409730487],['target'],148,0,148,0,260.8481534169987,,5,260.84110220798175,260.8481534169987,260.8481534169987,0.011562583007616922,263.9812095829984,[np.float64(-0.39666666666666667)],[np.float64(0.365)],[1],[0],[0],[3.1400510409730487],['target'],4,001,2025-09-28_17h02.33.627,Visual Search Experiment,,2025.1.1,None,2025-09-28 17h02.43.302776 +0530,
149,0,149,[np.float64(-0.013333333333333334)],[np.float64(0.24333333333333335)],[1],[0],[0],[1.7613186249800492],['target'],149,0,149,0,264.0106874999765,,10,264.0020670419908,264.0106874999765,264.0106874999765,0.02069779101293534,265.76343087499845,[np.float64(-0.013333333333333334)],[np.float64(0.24333333333333335)],[1],[0],[0],[1.7613186249800492],['target'],4,001,2025-09-28_17h02.33.627,Visual Search Experiment,,2025.1.1,None,2025-09-28 17h02.43.302776 +0530,
150,0,150,[np.float64(0.3516666666666667)],[np.float64(0.18166666666666667)],[1],[0],[0],[1.3885119170008693],['target'],150,0,150,0,265.78082954199635,,5,265.77414983298513,265.78082954199635,265.78082954199635,0.010543874988798052,267.16271554198465,[np.float64(0.3516666666666667)],[np.float64(0.18166666666666667)],[1],[0],[0],[1.3885119170008693],['target'],4,001,2025-09-28_17h02.33.627,Visual Search Experiment,,2025.1.1,None,2025-09-28 17h02.43.302776 +0530,
151,0,151,[np.float64(0.42)],[np.float64(0.18666666666666668)],[1],[0],[0],[1.07335404198966],['target'],151,0,151,0,267.1808004169725,,5,267.17398333299207,267.1808004169725,267.1808004169725,0.011129582999274135,268.24740320799174,[np.float64(0.42)],[np.float64(0.18666666666666668)],[1],[0],[0],[1.07335404198966],['target'],4,001,2025-09-28_17h02.33.627,Visual Search Experiment,,2025.1.1,None,2025-09-28 17h02.43.302776 +0530,
152,0,152,[np.float64(-0.20833333333333334)],[np.float64(0.2916666666666667)],[1],[0],[0],[1.7784381250094157],['target'],152,0,152,0,268.27580283299903,,10,268.26713495797594,268.27580283299903,268.27580283299903,0.019584166002459824,270.0456064999744,[np.float64(-0.20833333333333334)],[np.float64(0.2916666666666667)],[1],[0],[0],[1.7784381250094157],['target'],4,001,2025-09-28_17h02.33.627,Visual Search Experiment,,2025.1.1,None,2025-09-28 17h02.43.302776 +0530,
153,0,153,[np.float64(0.17)],[np.float64(-0.17166666666666666)],[1],[0],[0],[2.108501124981558],['target'],153,0,153,0,270.06050591697567,,5,270.05495316698216,270.06050591697567,270.06050591697567,0.009212666976964101,272.1635194999981,[np.float64(0.17)],[np.float64(-0.17166666666666666)],[1],[0],[0],[2.108501124981558],['target'],4,001,2025-09-28_17h02.33.627,Visual Search Experiment,,2025.1.1,None,2025-09-28 17h02.43.302776 +0530,
154,0,154,[np.float64(0.045)],[np.float64(-0.455)],[1],[0],[0],[2.1714549160096794],['target'],154,0,154,0,272.18194491698523,,5,272.1750962919905,272.18194491698523,272.18194491698523,0.011398290982469916,274.3466152079927,[np.float64(0.045)],[np.float64(-0.455)],[1],[0],[0],[2.1714549160096794],['target'],4,001,2025-09-28_17h02.33.627,Visual Search Experiment,,2025.1.1,None,2025-09-28 17h02.43.302776 +0530,
155,0,155,[np.float64(-0.18833333333333332)],[np.float64(-0.035)],[1],[0],[0],[1.572887707996415],['target'],155,0,155,0,274.36510779199307,,5,274.35827574998257,274.36510779199307,274.36510779199307,0.011513334000483155,275.9312156669912,[np.float64(-0.18833333333333332)],[np.float64(-0.035)],[1],[0],[0],[1.572887707996415],['target'],4,001,2025-09-28_17h02.33.627,Visual Search Experiment,,2025.1.1,None,2025-09-28 17h02.43.302776 +0530,
156,0,156,[np.float64(0.28)],[np.float64(0.46166666666666667)],[1],[0],[0],[2.3102582920109853],['target'],156,0,156,0,275.9621033750009,,10,275.95314133298234,275.9621033750009,275.9621033750009,0.021769790997495875,278.2634422080009,[np.float64(0.28)],[np.float64(0.46166666666666667)],[1],[0],[0],[2.3102582920109853],['target'],4,001,2025-09-28_17h02.33.627,Visual Search Experiment,,2025.1.1,None,2025-09-28 17h02.43.302776 +0530,
157,0,157,[np.float64(0.41833333333333333)],[np.float64(0.14166666666666666)],[1],[0],[0],[1.5820347080007195],['target'],157,0,157,0,278.2888939580007,,10,278.28148466697894,278.2888939580007,278.2888939580007,0.017876541998703033,279.86357516699354,[np.float64(0.41833333333333333)],[np.float64(0.14166666666666666)],[1],[0],[0],[1.5820347080007195],['target'],4,001,2025-09-28_17h02.33.627,Visual Search Experiment,,2025.1.1,None,2025-09-28 17h02.43.302776 +0530,
158,0,158,[np.float64(-0.26)],[np.float64(0.34833333333333333)],[1],[0],[0],[1.4989800000039395],['target'],158,0,158,0,279.8890863749839,,10,279.8813062919944,279.8890863749839,279.8890863749839,0.017569416988408193,281.3803218329849,[np.float64(-0.26)],[np.float64(0.34833333333333333)],[1],[0],[0],[1.4989800000039395],['target'],4,001,2025-09-28_17h02.33.627,Visual Search Experiment,,2025.1.1,None,2025-09-28 17h02.43.302776 +0530,
159,0,159,[np.float64(-0.49166666666666664)],[np.float64(-0.11166666666666666)],[1],[0],[0],[1.9476457499840762],['target'],159,0,159,0,281.4058881669771,,10,281.39845408298424,281.4058881669771,281.4058881669771,0.018001582997385412,283.34613883297425,[np.float64(-0.49166666666666664)],[np.float64(-0.11166666666666666)],[1],[0],[0],[1.9476457499840762],['target'],4,001,2025-09-28_17h02.33.627,Visual Search Experiment,,2025.1.1,None,2025-09-28 17h02.43.302776 +0530,
160,0,160,[np.float64(-0.14666666666666667)],[np.float64(-0.22166666666666668)],[1],[0],[0],[1.2501199579855893],['target'],160,0,160,0,283.37056083299103,,10,283.3634427919751,283.37056083299103,283.37056083299103,0.017162500007543713,284.61360929199145,[np.float64(-0.14666666666666667)],[np.float64(-0.22166666666666668)],[1],[0],[0],[1.2501199579855893],['target'],4,001,2025-09-28_17h02.33.627,Visual Search Experiment,,2025.1.1,None,2025-09-28 17h02.43.302776 +0530,
161,0,161,[np.float64(0.045)],[np.float64(-0.475)],[1],[0],[0],[2.030825084017124],['target'],161,0,161,0,284.64090804199805,,10,284.6327460829925,284.64090804199805,284.64090804199805,0.018970208009704947,286.6636262079992,[np.float64(0.045)],[np.float64(-0.475)],[1],[0],[0],[2.030825084017124],['target'],4,001,2025-09-28_17h02.33.627,Visual Search Experiment,,2025.1.1,None,2025-09-28 17h02.43.302776 +0530,
162,0,162,[np.float64(0.22833333333333333)],[np.float64(-0.30666666666666664)],[1],[0],[0],[0.8976709589769598],['target'],162,0,162,0,286.69001458300045,,10,286.68261099999654,286.69001458300045,286.69001458300045,0.018819292017724365,287.58031549997395,[np.float64(0.22833333333333333)],[np.float64(-0.30666666666666664)],[1],[0],[0],[0.8976709589769598],['target'],4,001,2025-09-28_17h02.33.627,Visual Search Experiment,,2025.1.1,None,2025-09-28 17h02.43.302776 +0530,
163,0,163,[np.float64(-0.39666666666666667)],[np.float64(0.44166666666666665)],[1],[0],[0],[1.7905642919940874],['target'],163,0,163,0,287.59651199998916,,5,287.5902757500007,287.59651199998916,287.59651199998916,0.009823667001910508,289.38090829199064,[np.float64(-0.39666666666666667)],[np.float64(0.44166666666666665)],[1],[0],[0],[1.7905642919940874],['target'],4,001,2025-09-28_17h02.33.627,Visual Search Experiment,,2025.1.1,None,2025-09-28 17h02.43.302776 +0530,
164,0,164,[np.float64(-0.21333333333333335)],[np.float64(-0.23)],[1],[0],[0],[1.5189144589821808],['target'],164,0,164,0,289.4010489169741,,5,289.39424745799624,289.4010489169741,289.4010489169741,0.013161499984562397,290.9132293750008,[np.float64(-0.21333333333333335)],[np.float64(-0.23)],[1],[0],[0],[1.5189144589821808],['target'],4,001,2025-09-28_17h02.33.627,Visual Search Experiment,,2025.1.1,None,2025-09-28 17h02.43.302776 +0530,
165,0,165,[np.float64(-0.3883333333333333)],[np.float64(-0.425)],[1],[0],[0],[1.7463494170224294],['target'],165,0,165,0,290.94205212499946,,10,290.9334923749848,290.94205212499946,290.94205212499946,0.02007687499281019,292.67990383299184,[np.float64(-0.3883333333333333)],[np.float64(-0.425)],[1],[0],[0],[1.7463494170224294],['target'],4,001,2025-09-28_17h02.33.627,Visual Search Experiment,,2025.1.1,None,2025-09-28 17h02.43.302776 +0530,
166,0,166,[np.float64(-0.023333333333333334)],[np.float64(0.028333333333333332)],[1],[0],[0],[2.7155784589995164],['target'],166,0,166,0,292.7045632499794,,10,292.69744687498314,292.7045632499794,292.7045632499794,0.01740679200156592,295.4130627499835,[np.float64(-0.023333333333333334)],[np.float64(0.028333333333333332)],[1],[0],[0],[2.7155784589995164],['target'],4,001,2025-09-28_17h02.33.627,Visual Search Experiment,,2025.1.1,None,2025-09-28 17h02.43.302776 +0530,
167,0,167,[np.float64(0.165)],[np.float64(-0.42333333333333334)],[1],[0],[0],[2.415989291999722],['target'],167,0,167,0,295.43775599999935,,10,295.4306444579852,295.43775599999935,295.43775599999935,0.01744366600178182,297.8466825419746,[np.float64(0.165)],[np.float64(-0.42333333333333334)],[1],[0],[0],[2.415989291999722],['target'],4,001,2025-09-28_17h02.33.627,Visual Search Experiment,,2025.1.1,None,2025-09-28 17h02.43.302776 +0530,
168,0,168,[np.float64(0.14333333333333334)],[np.float64(-0.1)],[1],[0],[0],[1.3552923339884728],['target'],168,0,168,0,297.8639025829907,,5,297.8576020829787,297.8639025829907,297.8639025829907,0.010750791989266872,299.2129571249825,[np.float64(0.14333333333333334)],[np.float64(-0.1)],[1],[0],[0],[1.3552923339884728],['target'],4,001,2025-09-28_17h02.33.627,Visual Search Experiment,,2025.1.1,None,2025-09-28 17h02.43.302776 +0530,
169,0,169,[np.float64(0.043333333333333335)],[np.float64(0.47833333333333333)],[1],[0],[0],[1.704311500012409],['target'],169,0,169,0,299.2328257919871,,5,299.22595249998267,299.2328257919871,299.2328257919871,0.012806874990928918,300.930310332973,[np.float64(0.043333333333333335)],[np.float64(0.47833333333333333)],[1],[0],[0],[1.704311500012409],['target'],4,001,2025-09-28_17h02.33.627,Visual Search Experiment,,2025.1.1,None,2025-09-28 17h02.43.302776 +0530,
170,0,170,[np.float64(-0.22166666666666668)],[np.float64(-0.3416666666666667)],[1],[0],[0],[2.4466269580007065],['target'],170,0,170,0,300.95869112497894,,10,300.9503267919936,300.95869112497894,300.95869112497894,0.019884832989191636,303.3969953749911,[np.float64(-0.22166666666666668)],[np.float64(-0.3416666666666667)],[1],[0],[0],[2.4466269580007065],['target'],4,001,2025-09-28_17h02.33.627,Visual Search Experiment,,2025.1.1,None,2025-09-28 17h02.43.302776 +0530,
171,0,171,[np.float64(-0.06333333333333334)],[np.float64(-0.38666666666666666)],[1],[0],[0],[0.9576295420120005],['target'],171,0,171,0,303.4137811669789,,5,303.4073257079872,303.4137811669789,303.4137811669789,0.010173540998948738,304.3650191249908,[np.float64(-0.06333333333333334)],[np.float64(-0.38666666666666666)],[1],[0],[0],[0.9576295420120005],['target'],4,001,2025-09-28_17h02.33.627,Visual Search Experiment,,2025.1.1,None,2025-09-28 17h02.43.302776 +0530,
172,0,172,[np.float64(0.24166666666666667)],[np.float64(0.49)],[1],[0],[0],[3.1768639580113813],['target'],172,0,172,0,304.39543158299057,,10,304.3867129579885,304.39543158299057,304.39543158299057,0.021510458987904713,307.5636247919756,[np.float64(0.24166666666666667)],[np.float64(0.49)],[1],[0],[0],[3.1768639580113813],['target'],4,001,2025-09-28_17h02.33.627,Visual Search Experiment,,2025.1.1,None,2025-09-28 17h02.43.302776 +0530,
173,0,173,[np.float64(-0.28833333333333333)],[np.float64(-0.42333333333333334)],[1],[0],[0],[2.3311364999972284],['target'],173,0,173,0,307.5895554999879,,10,307.5820160419971,307.5895554999879,307.5895554999879,0.018205041997134686,309.91319608298363,[np.float64(-0.28833333333333333)],[np.float64(-0.42333333333333334)],[1],[0],[0],[2.3311364999972284],['target'],4,001,2025-09-28_17h02.33.627,Visual Search Experiment,,2025.1.1,None,2025-09-28 17h02.43.302776 +0530,
174,0,174,[np.float64(0.2833333333333333)],[np.float64(0.255)],[1],[0],[0],[1.621725167002296],['target'],174,0,174,0,309.93022566699074,,5,309.9239273329731,309.93022566699074,309.93022566699074,0.010597624990623444,311.5456836669764,[np.float64(0.2833333333333333)],[np.float64(0.255)],[1],[0],[0],[1.621725167002296],['target'],4,001,2025-09-28_17h02.33.627,Visual Search Experiment,,2025.1.1,None,2025-09-28 17h02.43.302776 +0530,
175,0,175,[np.float64(0.19666666666666666)],[np.float64(0.105)],[1],[0],[0],[1.2784784999967087],['target'],175,0,175,0,311.5556894579786,,5,311.5516804169747,311.5556894579786,311.5556894579786,0.005920541996601969,312.8302234169969,[np.float64(0.19666666666666666)],[np.float64(0.105)],[1],[0],[0],[1.2784784999967087],['target'],4,001,2025-09-28_17h02.33.627,Visual Search Experiment,,2025.1.1,None,2025-09-28 17h02.43.302776 +0530,
176,0,176,[np.float64(0.315)],[np.float64(0.058333333333333334)],[1],[0],[0],[1.0369840420025866],['target'],176,0,176,0,312.84888949999004,,5,312.8423716669786,312.84888949999004,312.84888949999004,0.011956000002101064,313.87942191699403,[np.float64(0.315)],[np.float64(0.058333333333333334)],[1],[0],[0],[1.0369840420025866],['target'],4,001,2025-09-28_17h02.33.627,Visual Search Experiment,,2025.1.1,None,2025-09-28 17h02.43.302776 +0530,
177,0,177,[np.float64(-0.15666666666666668)],[np.float64(0.11166666666666666)],[1],[0],[0],[1.6135486669954844],['target'],177,0,177,0,313.90860204197816,,10,313.89966524997726,313.90860204197816,313.90860204197816,0.02006608300143853,315.5132554579759,[np.float64(-0.15666666666666668)],[np.float64(0.11166666666666666)],[1],[0],[0],[1.6135486669954844],['target'],4,001,2025-09-28_17h02.33.627,Visual Search Experiment,,2025.1.1,None,2025-09-28 17h02.43.302776 +0530,
178,0,178,[np.float64(0.40166666666666667)],[np.float64(0.3233333333333333)],[1],[0],[0],[1.5733753330132458],['target'],178,0,178,0,315.52992749999976,,5,315.52350341697456,315.52992749999976,315.52992749999976,0.010085208021337166,317.09693666698877,[np.float64(0.40166666666666667)],[np.float64(0.3233333333333333)],[1],[0],[0],[1.5733753330132458],['target'],4,001,2025-09-28_17h02.33.627,Visual Search Experiment,,2025.1.1,None,2025-09-28 17h02.43.302776 +0530,
179,0,179,[np.float64(-0.07666666666666666)],[np.float64(-0.2833333333333333)],[1],[0],[0],[1.5544417500204872],['target'],179,0,179,0,317.11550679197535,,5,317.10855312499916,317.11550679197535,317.11550679197535,0.011462166992714629,318.66303912497824,[np.float64(-0.07666666666666666)],[np.float64(-0.2833333333333333)],[1],[0],[0],[1.5544417500204872],['target'],4,001,2025-09-28_17h02.33.627,Visual Search Experiment,,2025.1.1,None,2025-09-28 17h02.43.302776 +0530,
180,0,180,[np.float64(-0.46)],[np.float64(0.43666666666666665)],[1],[0],[0],[3.180861417000415],['target'],180,0,180,0,318.69032537497696,,10,318.68239750000066,318.69032537497696,318.69032537497696,0.019222707982407883,321.86330537498,[np.float64(-0.46)],[np.float64(0.43666666666666665)],[1],[0],[0],[3.180861417000415],['target'],4,001,2025-09-28_17h02.33.627,Visual Search Experiment,,2025.1.1,None,2025-09-28 17h02.43.302776 +0530,
181,0,181,[np.float64(-0.495)],[np.float64(-0.415)],[1],[0],[0],[2.739577708009165],['target'],181,0,181,0,321.88073254199116,,5,321.8740112919768,321.88073254199116,321.88073254199116,0.010538874979829416,324.6136268749833,[np.float64(-0.495)],[np.float64(-0.415)],[1],[0],[0],[2.739577708009165],['target'],4,001,2025-09-28_17h02.33.627,Visual Search Experiment,,2025.1.1,None,2025-09-28 17h02.43.302776 +0530,
182,0,182,[np.float64(0.04)],[np.float64(0.15666666666666668)],[1],[0],[0],[1.4783991669828538],['target'],182,0,182,0,324.642634207994,,10,324.63359424998634,324.642634207994,324.642634207994,0.019793250015936792,326.11202841697377,[np.float64(0.04)],[np.float64(0.15666666666666668)],[1],[0],[0],[1.4783991669828538],['target'],4,001,2025-09-28_17h02.33.627,Visual Search Experiment,,2025.1.1,None,2025-09-28 17h02.43.302776 +0530,
183,0,183,[np.float64(0.255)],[np.float64(-0.13166666666666665)],[1],[0],[0],[2.8248027080262545],['target'],183,0,183,0,326.12725891699665,,5,326.121643874998,326.12725891699665,326.12725891699665,0.009471500001382083,328.94651170799625,[np.float64(0.255)],[np.float64(-0.13166666666666665)],[1],[0],[0],[2.8248027080262545],['target'],4,001,2025-09-28_17h02.33.627,Visual Search Experiment,,2025.1.1,None,2025-09-28 17h02.43.302776 +0530,
184,0,184,[np.float64(0.12166666666666667)],[np.float64(0.16666666666666666)],[1],[0],[0],[1.3135233750217594],['target'],184,0,184,0,328.97551954200026,,10,328.96642862498993,328.97551954200026,328.97551954200026,0.019739250012207776,330.27999137499137,[np.float64(0.12166666666666667)],[np.float64(0.16666666666666666)],[1],[0],[0],[1.3135233750217594],['target'],4,001,2025-09-28_17h02.33.627,Visual Search Experiment,,2025.1.1,None,2025-09-28 17h02.43.302776 +0530,
185,0,185,[np.float64(-0.39)],[np.float64(0.37166666666666665)],[1],[0],[0],[1.6318424999772105],['target'],185,0,185,0,330.3050239579752,,10,330.29796708299546,330.3050239579752,330.3050239579752,0.017803624999942258,331.9298577919835,[np.float64(-0.39)],[np.float64(0.37166666666666665)],[1],[0],[0],[1.6318424999772105],['target'],4,001,2025-09-28_17h02.33.627,Visual Search Experiment,,2025.1.1,None,2025-09-28 17h02.43.302776 +0530,
186,0,186,[np.float64(-0.04833333333333333)],[np.float64(0.29833333333333334)],[1],[0],[0],[1.3499562079960015],['target'],186,0,186,0,331.95382450000034,,10,331.94691433297703,331.95382450000034,331.95382450000034,0.016899291978916153,333.2969149579876,[np.float64(-0.04833333333333333)],[np.float64(0.29833333333333334)],[1],[0],[0],[1.3499562079960015],['target'],4,001,2025-09-28_17h02.33.627,Visual Search Experiment,,2025.1.1,None,2025-09-28 17h02.43.302776 +0530,
187,0,187,[np.float64(0.43666666666666665)],[np.float64(0.25166666666666665)],[1],[0],[0],[1.9719707090116572],['target'],187,0,187,0,333.3142272499972,,5,333.3078637079743,333.3142272499972,333.3142272499972,0.010785583988763392,335.2799006669957,[np.float64(0.43666666666666665)],[np.float64(0.25166666666666665)],[1],[0],[0],[1.9719707090116572],['target'],4,001,2025-09-28_17h02.33.627,Visual Search Experiment,,2025.1.1,None,2025-09-28 17h02.43.302776 +0530,
188,0,188,[np.float64(0.4483333333333333)],[np.float64(0.24666666666666667)],[1],[0],[0],[0.9365192920085974],['target'],188,0,188,0,335.2995207919739,,5,335.292551999999,335.2995207919739,335.2995207919739,0.012470291985664517,336.2291177919833,[np.float64(0.4483333333333333)],[np.float64(0.24666666666666667)],[1],[0],[0],[0.9365192920085974],['target'],4,001,2025-09-28_17h02.33.627,Visual Search Experiment,,2025.1.1,None,2025-09-28 17h02.43.302776 +0530,
189,0,189,[np.float64(-0.195)],[np.float64(0.37666666666666665)],[1],[0],[0],[1.814808291994268],['target'],189,0,189,0,336.25657899997896,,10,336.24859137498424,336.25657899997896,336.25657899997896,0.019342375017004088,338.0634404999728,[np.float64(-0.195)],[np.float64(0.37666666666666665)],[1],[0],[0],[1.814808291994268],['target'],4,001,2025-09-28_17h02.33.627,Visual Search Experiment,,2025.1.1,None,2025-09-28 17h02.43.302776 +0530,
190,0,190,[np.float64(-0.065)],[np.float64(-0.041666666666666664)],[1],[0],[0],[3.4642226670111995],['target'],190,0,190,0,338.0898592079757,,10,338.0823398329958,338.0898592079757,338.0898592079757,0.018737666017841548,341.54660770797636,[np.float64(-0.065)],[np.float64(-0.041666666666666664)],[1],[0],[0],[3.4642226670111995],['target'],4,001,2025-09-28_17h02.33.627,Visual Search Experiment,,2025.1.1,None,2025-09-28 17h02.43.302776 +0530,
191,0,191,[np.float64(-0.10333333333333333)],[np.float64(-0.041666666666666664)],[1],[0],[0],[0.6419195420166943],['target'],191,0,191,0,341.563573499996,,5,341.55684612499317,341.563573499996,341.563573499996,0.010094833007315174,342.19882662498276,[np.float64(-0.10333333333333333)],[np.float64(-0.041666666666666664)],[1],[0],[0],[0.6419195420166943],['target'],4,001,2025-09-28_17h02.33.627,Visual Search Experiment,,2025.1.1,None,2025-09-28 17h02.43.302776 +0530,
192,0,192,[np.float64(0.055)],[np.float64(0.275)],[1],[0],[0],[1.7580017909931485],['target'],192,0,192,0,342.2310259169899,,10,342.22191320799175,342.2310259169899,342.2310259169899,0.022909916006028652,343.97995858298964,[np.float64(0.055)],[np.float64(0.275)],[1],[0],[0],[1.7580017909931485],['target'],4,001,2025-09-28_17h02.33.627,Visual Search Experiment,,2025.1.1,None,2025-09-28 17h02.43.302776 +0530,
193,0,193,[np.float64(-0.47)],[np.float64(-0.465)],[1],[0],[0],[1.9132448750024196],['target'],193,0,193,0,344.00583791697863,,10,343.9984304999816,344.00583791697863,344.00583791697863,0.018300457973964512,345.91171845799545,[np.float64(-0.47)],[np.float64(-0.465)],[1],[0],[0],[1.9132448750024196],['target'],4,001,2025-09-28_17h02.33.627,Visual Search Experiment,,2025.1.1,None,2025-09-28 17h02.43.302776 +0530,
194,0,194,[np.float64(-0.225)],[np.float64(-0.19166666666666668)],[1],[0],[0],[1.2015004580025561],['target'],194,0,194,0,345.93606749997707,,10,345.92874104197836,345.93606749997707,345.93606749997707,0.01687191700330004,347.1302905419725,[np.float64(-0.225)],[np.float64(-0.19166666666666668)],[1],[0],[0],[1.2015004580025561],['target'],4,001,2025-09-28_17h02.33.627,Visual Search Experiment,,2025.1.1,None,2025-09-28 17h02.43.302776 +0530,
195,0,195,[np.float64(-0.37833333333333335)],[np.float64(0.4716666666666667)],[1],[0],[0],[2.454872125003021],['target'],195,0,195,0,347.14826012498816,,5,347.1417032079771,347.14826012498816,347.14826012498816,0.011235625017434359,349.59662291698623,[np.float64(-0.37833333333333335)],[np.float64(0.4716666666666667)],[1],[0],[0],[2.454872125003021],['target'],4,001,2025-09-28_17h02.33.627,Visual Search Experiment,,2025.1.1,None,2025-09-28 17h02.43.302776 +0530,
196,0,196,[np.float64(0.02)],[np.float64(0.4083333333333333)],[1],[0],[0],[1.130298167001456],['target'],196,0,196,0,349.6252265829826,,10,349.6169804999954,349.6252265829826,349.6252265829826,0.020221250015310943,350.747329374979,[np.float64(0.02)],[np.float64(0.4083333333333333)],[1],[0],[0],[1.130298167001456],['target'],4,001,2025-09-28_17h02.33.627,Visual Search Experiment,,2025.1.1,None,2025-09-28 17h02.43.302776 +0530,
197,0,197,[np.float64(0.30333333333333334)],[np.float64(0.48833333333333334)],[1],[0],[0],[3.137907583004562],['target'],197,0,197,0,350.7657261249842,,5,350.7590536669886,350.7657261249842,350.7657261249842,0.011531584023032337,353.8970164579805,[np.float64(0.30333333333333334)],[np.float64(0.48833333333333334)],[1],[0],[0],[3.137907583004562],['target'],4,001,2025-09-28_17h02.33.627,Visual Search Experiment,,2025.1.1,None,2025-09-28 17h02.43.302776 +0530,
198,0,198,[np.float64(0.37666666666666665)],[np.float64(-0.135)],[1],[0],[0],[2.2468613340170123],['target'],198,0,198,0,353.9243449579808,,10,353.91651033298695,353.9243449579808,353.9243449579808,0.019336708006449044,356.16342391699436,[np.float64(0.37666666666666665)],[np.float64(-0.135)],[1],[0],[0],[2.2468613340170123],['target'],4,001,2025-09-28_17h02.33.627,Visual Search Experiment,,2025.1.1,None,2025-09-28 17h02.43.302776 +0530,
199,0,199,[np.float64(-0.37666666666666665)],[np.float64(-0.285)],[1],[0],[0],[1.9724304999981541],['target'],199,0,199,0,356.1806861249788,,5,356.17424004198983,356.1806861249788,356.1806861249788,0.010652291995938867,358.1467325419944,[np.float64(-0.37666666666666665)],[np.float64(-0.285)],[1],[0],[0],[1.9724304999981541],['target'],4,001,2025-09-28_17h02.33.627,Visual Search Experiment,,2025.1.1,None,2025-09-28 17h02.43.302776 +0530,
