study_word,thisN,thisTrialN,thisRepN,slider.response,slider.rt,test_word,reference,old_new,textbox.text,mouse.x,mouse.y,mouse.leftButton,mouse.midButton,mouse.rightButton,mouse.time,mouse.clicked_name,trials.thisRepN,trials.thisTrialN,trials.thisN,trials.thisIndex,trials_2.thisRepN,trials_2.thisTrialN,trials_2.thisN,trials_2.thisIndex,thisRow.t,notes,trial.started,text.started,slider.started,trial.stopped,trials.slider.response,trials.slider.rt,test.started,text_2.started,textbox.started,text_3.started,mouse.started,text_2.stopped,test.stopped,trials_2.textbox.text,trials_2.mouse.x,trials_2.mouse.y,trials_2.mouse.leftButton,trials_2.mouse.midButton,trials_2.mouse.rightButton,trials_2.mouse.time,trials_2.mouse.clicked_name,participant,session,date,expName,expVersion,psychopyVersion,frameRate,expStart,
keys,0,0,0,1,2.513063083002635,,,,,,,,,,,,0,0,0,13,,,,,0.020210208000207786,,0.008223707998695318,0.020210208000207786,0.020210208000207786,2.5322308329996304,1,2.513063083002635,,,,,,,,,,,,,,,,4,001,2025-10-09_10h27.40.822,Word Priming Experiment,,2025.1.1,None,2025-10-09 10h28.26.747252 +0530,
phone,1,1,0,1,1.1353304169970215,,,,,,,,,,,,0,1,1,2,,,,,2.5402039580003475,,2.5356620410020696,2.5402039580003475,2.5402039580003475,3.682191915999283,1,1.1353304169970215,,,,,,,,,,,,,,,,4,001,2025-10-09_10h27.40.822,Word Priming Experiment,,2025.1.1,None,2025-10-09 10h28.26.747252 +0530,
cushion,2,2,0,1,0.7542084579981747,,,,,,,,,,,,0,2,2,1,,,,,3.688489833002677,,3.6841558329979307,3.688489833002677,3.688489833002677,4.448867125000106,1,0.7542084579981747,,,,,,,,,,,,,,,,4,001,2025-10-09_10h27.40.822,Word Priming Experiment,,2025.1.1,None,2025-10-09 10h28.26.747252 +0530,
mouse,3,3,0,1,1.1544289999947068,,,,,,,,,,,,0,3,3,8,,,,,4.4549478749977425,,4.450661249997211,4.4549478749977425,4.4549478749977425,5.61588916600158,1,1.1544289999947068,,,,,,,,,,,,,,,,4,001,2025-10-09_10h27.40.822,Word Priming Experiment,,2025.1.1,None,2025-10-09 10h28.26.747252 +0530,
laptop,4,4,0,1,0.9024992499980726,,,,,,,,,,,,0,4,4,5,,,,,5.623116957998718,,5.618502083001658,5.623116957998718,5.623116957998718,6.53223408300255,1,0.9024992499980726,,,,,,,,,,,,,,,,4,001,2025-10-09_10h27.40.822,Word Priming Experiment,,2025.1.1,None,2025-10-09 10h28.26.747252 +0530,
cruise,5,5,0,1,1.6700250829962897,,,,,,,,,,,,0,5,5,11,,,,,6.538832416001242,,6.534539874999609,6.538832416001242,6.538832416001242,8.21547187500255,1,1.6700250829962897,,,,,,,,,,,,,,,,4,001,2025-10-09_10h27.40.822,Word Priming Experiment,,2025.1.1,None,2025-10-09 10h28.26.747252 +0530,
pastry,6,6,0,1,1.5372581659976277,,,,,,,,,,,,0,6,6,9,,,,,8.221674415995949,,8.21724966599868,8.221674415995949,8.221674415995949,9.765485333002289,1,1.5372581659976277,,,,,,,,,,,,,,,,4,001,2025-10-09_10h27.40.822,Word Priming Experiment,,2025.1.1,None,2025-10-09 10h28.26.747252 +0530,
poster,7,7,0,1,1.1037663749957574,,,,,,,,,,,,0,7,7,14,,,,,9.771838207998371,,9.767380666002282,9.771838207998371,9.771838207998371,10.882176457998867,1,1.1037663749957574,,,,,,,,,,,,,,,,4,001,2025-10-09_10h27.40.822,Word Priming Experiment,,2025.1.1,None,2025-10-09 10h28.26.747252 +0530,
chart,8,8,0,1,0.9538976670010015,,,,,,,,,,,,0,8,8,6,,,,,10.888632166002935,,10.883829332997266,10.888632166002935,10.888632166002935,11.848893624999619,1,0.9538976670010015,,,,,,,,,,,,,,,,4,001,2025-10-09_10h27.40.822,Word Priming Experiment,,2025.1.1,None,2025-10-09 10h28.26.747252 +0530,
book,9,9,0,1,0.8881977919954807,,,,,,,,,,,,0,9,9,0,,,,,11.854821832996095,,11.850434375002806,11.854821832996095,11.854821832996095,12.749128165996808,1,0.8881977919954807,,,,,,,,,,,,,,,,4,001,2025-10-09_10h27.40.822,Word Priming Experiment,,2025.1.1,None,2025-10-09 10h28.26.747252 +0530,
marble,10,10,0,1,0.9035404589958489,,,,,,,,,,,,0,10,10,3,,,,,12.755446750001283,,12.750818125001388,12.755446750001283,12.755446750001283,13.665322790999198,1,0.9035404589958489,,,,,,,,,,,,,,,,4,001,2025-10-09_10h27.40.822,Word Priming Experiment,,2025.1.1,None,2025-10-09 10h28.26.747252 +0530,
board,11,11,0,1,0.9033666249961243,,,,,,,,,,,,0,11,11,4,,,,,13.671975625002233,,13.667642332999094,13.671975625002233,13.671975625002233,14.582128624999314,1,0.9033666249961243,,,,,,,,,,,,,,,,4,001,2025-10-09_10h27.40.822,Word Priming Experiment,,2025.1.1,None,2025-10-09 10h28.26.747252 +0530,
t-shirt,12,12,0,1,0.8864859999957844,,,,,,,,,,,,0,12,12,7,,,,,14.588797083000827,,14.584443749998172,14.588797083000827,14.588797083000827,15.482105290997424,1,0.8864859999957844,,,,,,,,,,,,,,,,4,001,2025-10-09_10h27.40.822,Word Priming Experiment,,2025.1.1,None,2025-10-09 10h28.26.747252 +0530,
case,13,13,0,1,1.037385624993476,,,,,,,,,,,,0,13,13,10,,,,,15.487969374997192,,15.483627166002407,15.487969374997192,15.487969374997192,16.532123290999152,1,1.037385624993476,,,,,,,,,,,,,,,,4,001,2025-10-09_10h27.40.822,Word Priming Experiment,,2025.1.1,None,2025-10-09 10h28.26.747252 +0530,
police,14,14,0,1,0.8540114579955116,,,,,,,,,,,,0,14,14,12,,,,,16.53832537499693,,16.533841707998363,16.53832537499693,16.53832537499693,17.39889045799646,1,0.8540114579955116,,,,,,,,,,,,,,,,4,001,2025-10-09_10h27.40.822,Word Priming Experiment,,2025.1.1,None,2025-10-09 10h28.26.747252 +0530,
,0,0,0,,,_ru_s_,cruise,old,cruise,[np.float64(0.04833333333333333)],[np.float64(-0.32666666666666666)],[1],[0],[0],[10.483172041997022],['text_3'],,,,,0,0,0,6,17.413991832996544,,,,,,,,17.40736908299732,17.413991832996544,17.413991832996544,17.413991832996544,0.008477167000819463,27.405074082998908,27.890699208001024,cruise,[np.float64(0.04833333333333333)],[np.float64(-0.32666666666666666)],[1],[0],[0],[10.483172041997022],['text_3'],4,001,2025-10-09_10h27.40.822,Word Priming Experiment,,2025.1.1,None,2025-10-09 10h28.26.747252 +0530,
,1,1,0,,,p_st_r,poster,old,pastry,[np.float64(0.03333333333333333)],[np.float64(-0.29833333333333334)],[1],[0],[0],[11.662857457995415],['text_3'],,,,,0,1,1,9,27.916168415998982,,,,,,,,27.89303474999906,27.916168415998982,27.916168415998982,27.916168415998982,0.002170500003558118,37.90449916599755,39.55605966599978,pastry,[np.float64(0.03333333333333333)],[np.float64(-0.29833333333333334)],[1],[0],[0],[11.662857457995415],['text_3'],4,001,2025-10-09_10h27.40.822,Word Priming Experiment,,2025.1.1,None,2025-10-09 10h28.26.747252 +0530,
,2,2,0,,,v_s_,vase,new,vase,"[np.float64(0.021666666666666667), np.float64(0.025)]","[np.float64(-0.3383333333333333), np.float64(-0.285)]","[1, 1]","[0, 0]","[0, 0]","[3.512512041001173, 4.246375415998045]","[None, 'text_3']",,,,,0,2,2,17,39.58289237500139,,,,,,,,39.559063000000606,39.58289237500139,39.58289237500139,39.58289237500139,0.0028870830064988695,,43.80562695799745,vase,"[np.float64(0.021666666666666667), np.float64(0.025)]","[np.float64(-0.3383333333333333), np.float64(-0.285)]","[1, 1]","[0, 0]","[0, 0]","[3.512512041001173, 4.246375415998045]","[None, 'text_3']",4,001,2025-10-09_10h27.40.822,Word Priming Experiment,,2025.1.1,None,2025-10-09 10h28.26.747252 +0530,
,3,3,0,,,p_nc_l,pencil,new,pencil,"[np.float64(0.0033333333333333335), np.float64(0.023333333333333334)]","[np.float64(-0.33), np.float64(-0.29333333333333333)]","[1, 1]","[0, 0]","[0, 0]","[12.631599375003134, 13.464921083002992]","[None, 'text_3']",,,,,0,3,3,16,43.81513249999989,,,,,,,,43.80772525000066,43.81513249999989,43.81513249999989,43.81513249999989,0.001985416005481966,53.80762833300105,57.2728390830016,pencil,"[np.float64(0.0033333333333333335), np.float64(0.023333333333333334)]","[np.float64(-0.33), np.float64(-0.29333333333333333)]","[1, 1]","[0, 0]","[0, 0]","[12.631599375003134, 13.464921083002992]","[None, 'text_3']",4,001,2025-10-09_10h27.40.822,Word Priming Experiment,,2025.1.1,None,2025-10-09 10h28.26.747252 +0530,
,4,4,0,,,t_hi_t,t-shirt,old,tshirt,"[np.float64(-0.0016666666666666668), np.float64(-0.0033333333333333335)]","[np.float64(-0.33), np.float64(-0.30333333333333334)]","[1, 1]","[0, 0]","[0, 0]","[5.897443750000093, 6.647339208000631]","[None, 'text_3']",,,,,0,4,4,2,57.282449749996886,,,,,,,,57.27497795799718,57.282449749996886,57.282449749996886,57.282449749996886,0.0020268330044928007,,63.922516624996206,tshirt,"[np.float64(-0.0016666666666666668), np.float64(-0.0033333333333333335)]","[np.float64(-0.33), np.float64(-0.30333333333333334)]","[1, 1]","[0, 0]","[0, 0]","[5.897443750000093, 6.647339208000631]","[None, 'text_3']",4,001,2025-10-09_10h27.40.822,Word Priming Experiment,,2025.1.1,None,2025-10-09 10h28.26.747252 +0530,
,5,5,0,,,p_s_tr_,pastery,old,pastry,"[np.float64(0.0), np.float64(-0.005)]","[np.float64(-0.335), np.float64(-0.2733333333333333)]","[1, 1]","[0, 0]","[0, 0]","[8.464588209004432, 9.346701125003165]","[None, 'text_3']",,,,,0,5,5,4,63.931847332998586,,,,,,,,63.92467283299629,63.931847332998586,63.931847332998586,63.931847332998586,0.0020417500054463744,,73.2715846659994,pastry,"[np.float64(0.0), np.float64(-0.005)]","[np.float64(-0.335), np.float64(-0.2733333333333333)]","[1, 1]","[0, 0]","[0, 0]","[8.464588209004432, 9.346701125003165]","[None, 'text_3']",4,001,2025-10-09_10h27.40.822,Word Priming Experiment,,2025.1.1,None,2025-10-09 10h28.26.747252 +0530,
,6,6,0,,,_o_rd,board,old,board,[np.float64(0.06166666666666667)],[np.float64(-0.2833333333333333)],[1],[0],[0],[9.298840708994248],['text_3'],,,,,0,6,6,10,73.28178945800028,,,,,,,,73.27375649999885,73.28178945800028,73.28178945800028,73.28178945800028,0.002057833000435494,,82.57279974999983,board,[np.float64(0.06166666666666667)],[np.float64(-0.2833333333333333)],[1],[0],[0],[9.298840708994248],['text_3'],4,001,2025-10-09_10h27.40.822,Word Priming Experiment,,2025.1.1,None,2025-10-09 10h28.26.747252 +0530,
,7,7,0,,,bo_t_e,bottle,new,bottle,[np.float64(0.023333333333333334)],[np.float64(-0.32166666666666666)],[1],[0],[0],[8.681889874998888],['text_3'],,,,,0,7,7,18,82.5821185829991,,,,,,,,82.57487650000257,82.5821185829991,82.5821185829991,82.5821185829991,0.0019847500007017516,,91.25697566600138,bottle,[np.float64(0.023333333333333334)],[np.float64(-0.32166666666666666)],[1],[0],[0],[8.681889874998888],['text_3'],4,001,2025-10-09_10h27.40.822,Word Priming Experiment,,2025.1.1,None,2025-10-09 10h28.26.747252 +0530,
,8,8,0,,,c_a_,case,old,case,[np.float64(0.016666666666666666)],[np.float64(-0.295)],[1],[0],[0],[11.529529749997891],['text_3'],,,,,0,8,8,5,91.26942941600282,,,,,,,,91.25942295799905,91.26942941600282,91.26942941600282,91.26942941600282,0.002385666004556697,101.26599016600085,102.78918274999887,case,[np.float64(0.016666666666666666)],[np.float64(-0.295)],[1],[0],[0],[11.529529749997891],['text_3'],4,001,2025-10-09_10h27.40.822,Word Priming Experiment,,2025.1.1,None,2025-10-09 10h28.26.747252 +0530,
,9,9,0,,,_o_se,mouse,old,mouse,[np.float64(0.055)],[np.float64(-0.30333333333333334)],[1],[0],[0],[4.398012749996269],['text_3'],,,,,0,9,9,3,102.79848087499704,,,,,,,,102.79109470800176,102.79848087499704,102.79848087499704,102.79848087499704,0.001819208002416417,,107.18931449999945,mouse,[np.float64(0.055)],[np.float64(-0.30333333333333334)],[1],[0],[0],[4.398012749996269],['text_3'],4,001,2025-10-09_10h27.40.822,Word Priming Experiment,,2025.1.1,None,2025-10-09 10h28.26.747252 +0530,
,10,10,0,,,_oo_,book,old,book,[np.float64(0.05333333333333334)],[np.float64(-0.295)],[1],[0],[0],[3.1979812499994296],['text_3'],,,,,0,10,10,13,107.19845245799661,,,,,,,,107.19114404099673,107.19845245799661,107.19845245799661,107.19845245799661,0.001737541999318637,,110.38932812499843,book,[np.float64(0.05333333333333334)],[np.float64(-0.295)],[1],[0],[0],[3.1979812499994296],['text_3'],4,001,2025-10-09_10h27.40.822,Word Priming Experiment,,2025.1.1,None,2025-10-09 10h28.26.747252 +0530,
,11,11,0,,,_ha_t,chart,old,chart,[np.float64(0.085)],[np.float64(-0.32)],[1],[0],[0],[6.89804191699659],['text_3'],,,,,0,11,11,1,110.39842758300074,,,,,,,,110.39107695799612,110.39842758300074,110.39842758300074,110.39842758300074,0.001666042000579182,,117.28931079099857,chart,[np.float64(0.085)],[np.float64(-0.32)],[1],[0],[0],[6.89804191699659],['text_3'],4,001,2025-10-09_10h27.40.822,Word Priming Experiment,,2025.1.1,None,2025-10-09 10h28.26.747252 +0530,
,12,12,0,,,ta_l_,table,new,table,[np.float64(0.056666666666666664)],[np.float64(-0.2866666666666667)],[1],[0],[0],[4.914726249997329],['text_3'],,,,,0,12,12,15,117.29839037499914,,,,,,,,117.29110524999851,117.29839037499914,117.29839037499914,117.29839037499914,0.0017115410009864718,,122.20604758300033,table,[np.float64(0.056666666666666664)],[np.float64(-0.2866666666666667)],[1],[0],[0],[4.914726249997329],['text_3'],4,001,2025-10-09_10h27.40.822,Word Priming Experiment,,2025.1.1,None,2025-10-09 10h28.26.747252 +0530,
,13,13,0,,,c_m_ra,camera,new,camera,"[np.float64(0.07833333333333334), np.float64(0.07833333333333334), np.float64(0.03166666666666667), np.float64(0.07)]","[np.float64(-0.335), np.float64(-0.3333333333333333), np.float64(-0.016666666666666666), np.float64(-0.2916666666666667)]","[1, 1, 1, 1]","[0, 0, 0, 0]","[0, 0, 0, 0]","[5.796447624998109, 6.147990666002443, 7.630316125003446, 10.980702332999499]","[None, None, None, 'text_3']",,,,,0,13,13,19,122.2158859159972,,,,,,,,122.20835670799715,122.2158859159972,122.2158859159972,122.2158859159972,0.002214166001067497,132.2035320829964,133.18928887500078,camera,"[np.float64(0.07833333333333334), np.float64(0.07833333333333334), np.float64(0.03166666666666667), np.float64(0.07)]","[np.float64(-0.335), np.float64(-0.3333333333333333), np.float64(-0.016666666666666666), np.float64(-0.2916666666666667)]","[1, 1, 1, 1]","[0, 0, 0, 0]","[0, 0, 0, 0]","[5.796447624998109, 6.147990666002443, 7.630316125003446, 10.980702332999499]","[None, None, None, 'text_3']",4,001,2025-10-09_10h27.40.822,Word Priming Experiment,,2025.1.1,None,2025-10-09 10h28.26.747252 +0530,
,14,14,0,,,p_li_e,police,old,police,[np.float64(0.07)],[np.float64(-0.29)],[1],[0],[0],[3.5148304590038606],['text_3'],,,,,0,14,14,7,133.19844079099857,,,,,,,,133.19142545799696,133.19844079099857,133.19844079099857,133.19844079099857,0.001976624997041654,,136.7064873749987,police,[np.float64(0.07)],[np.float64(-0.29)],[1],[0],[0],[3.5148304590038606],['text_3'],4,001,2025-10-09_10h27.40.822,Word Priming Experiment,,2025.1.1,None,2025-10-09 10h28.26.747252 +0530,
,15,15,0,,,l_pt_p,laptop,old,laptop,[np.float64(0.07)],[np.float64(-0.29333333333333333)],[1],[0],[0],[4.431205709006463],['text_3'],,,,,0,15,15,0,136.7327150409983,,,,,,,,136.7085567499962,136.7327150409983,136.7327150409983,136.7327150409983,0.001977041996724438,,141.13999679099652,laptop,[np.float64(0.07)],[np.float64(-0.29333333333333333)],[1],[0],[0],[4.431205709006463],['text_3'],4,001,2025-10-09_10h27.40.822,Word Priming Experiment,,2025.1.1,None,2025-10-09 10h28.26.747252 +0530,
,16,16,0,,,c_s_io_,cushion,old,cushion,[np.float64(0.07)],[np.float64(-0.29333333333333333)],[1],[0],[0],[4.896905041998252],['text_3'],,,,,0,16,16,14,141.16597679100232,,,,,,,,141.14229116599745,141.16597679100232,141.16597679100232,141.16597679100232,0.0022007500010658987,,146.03943337500095,cushion,[np.float64(0.07)],[np.float64(-0.29333333333333333)],[1],[0],[0],[4.896905041998252],['text_3'],4,001,2025-10-09_10h27.40.822,Word Priming Experiment,,2025.1.1,None,2025-10-09 10h28.26.747252 +0530,
,17,17,0,,,k_y,key,old,key,[np.float64(0.07)],[np.float64(-0.29333333333333333)],[1],[0],[0],[3.49807091600087],['text_3'],,,,,0,17,17,8,146.05190199999925,,,,,,,,146.04135900000256,146.05190199999925,146.05190199999925,146.05190199999925,0.0018302910029888153,,149.53966970799956,key,[np.float64(0.07)],[np.float64(-0.29333333333333333)],[1],[0],[0],[3.49807091600087],['text_3'],4,001,2025-10-09_10h27.40.822,Word Priming Experiment,,2025.1.1,None,2025-10-09 10h28.26.747252 +0530,
,18,18,0,,,_ho_e,phone,old,phone,[np.float64(0.07)],[np.float64(-0.29333333333333333)],[1],[0],[0],[5.080878957996902],['text_3'],,,,,0,18,18,12,149.54943083300168,,,,,,,,149.54173083299975,149.54943083300168,149.54943083300168,149.54943083300168,0.001931207996676676,,154.6228530829976,phone,[np.float64(0.07)],[np.float64(-0.29333333333333333)],[1],[0],[0],[5.080878957996902],['text_3'],4,001,2025-10-09_10h27.40.822,Word Priming Experiment,,2025.1.1,None,2025-10-09 10h28.26.747252 +0530,
,19,19,0,,,_a_bl_,marble,old,table,[np.float64(0.07)],[np.float64(-0.29333333333333333)],[1],[0],[0],[3.980939875000331],['text_3'],,,,,0,19,19,11,154.63215095800115,,,,,,,,154.6248392080015,154.63215095800115,154.63215095800115,154.63215095800115,0.0018859160045394674,,158.60599454100156,table,[np.float64(0.07)],[np.float64(-0.29333333333333333)],[1],[0],[0],[3.980939875000331],['text_3'],4,001,2025-10-09_10h27.40.822,Word Priming Experiment,,2025.1.1,None,2025-10-09 10h28.26.747252 +0530,
