pos,corr_resp,thisN,thisTrialN,thisRepN,key_resp.keys,key_resp.corr,key_resp.rt,key_resp.duration,trials.thisRepN,trials.thisTrialN,trials.thisN,trials.thisIndex,trials_2.thisRepN,trials_2.thisTrialN,trials_2.thisN,trials_2.thisIndex,thisRow.t,notes,trial.started,fixation.started,line_1.started,line_2.started,line_3.started,line_4.started,fixation.stopped,probe.started,key_resp.started,trial.stopped,trials.key_resp.keys,trials.key_resp.corr,trials.key_resp.rt,trials.key_resp.duration,trials_2.key_resp.keys,trials_2.key_resp.corr,trials_2.key_resp.rt,trials_2.key_resp.duration,participant,session,date,expName,expVersion,psychopyVersion,frameRate,expStart,
-50,x,0,0,0,x,1,1.2480992499622516,None,0,0,0,0,,,,,0.027426249987911433,,0.021591708005871624,0.027426249987911433,1.0065371670061722,1.0065371670061722,1.0065371670061722,1.0065371670061722,1.0190479169832543,1.9909577500075102,1.9909577500075102,3.4456837080069818,x,1,1.2480992499622516,None,,,,,5,001,2025-10-01_14h25.33.829, Motor Sequence Learning,,2025.1.1,None,2025-10-01 14h25.45.506259 +0530,
150,v,1,1,0,v,1,0.27590116596547887,None,0,1,1,1,,,,,3.4558475830126554,,3.4458628749707714,3.4558475830126554,4.439305207983125,4.439305207983125,4.439305207983125,4.439305207983125,4.450436500017531,5.438905458024237,5.438905458024237,5.718486541998573,v,1,0.27590116596547887,None,,,,,5,001,2025-10-01_14h25.33.829, Motor Sequence Learning,,2025.1.1,None,2025-10-01 14h25.45.506259 +0530,
50,c,2,2,0,c,1,0.29559125000378117,None,0,2,2,2,,,,,5.727187416981906,,5.71907862497028,5.727187416981906,6.716933999967296,6.716933999967296,6.716933999967296,6.716933999967296,6.721498625003733,7.717032167012803,7.717032167012803,8.018311417021323,c,1,0.29559125000378117,None,,,,,5,001,2025-10-01_14h25.33.829, Motor Sequence Learning,,2025.1.1,None,2025-10-01 14h25.45.506259 +0530,
-150,z,3,3,0,z,1,0.2842256239964627,None,0,3,3,3,,,,,8.025512374995742,,8.018811208021361,8.025512374995742,9.017022249987349,9.017022249987349,9.017022249987349,9.017022249987349,9.021972624992486,10.016879333008546,10.016879333008546,10.306469917006325,z,1,0.2842256239964627,None,,,,,5,001,2025-10-01_14h25.33.829, Motor Sequence Learning,,2025.1.1,None,2025-10-01 14h25.45.506259 +0530,
-50,x,4,0,1,x,1,0.3861170409945771,None,1,0,4,0,,,,,10.316310207999777,,10.306958291970659,10.316310207999777,11.30579591699643,11.30579591699643,11.30579591699643,11.30579591699643,11.30579591699643,12.308343291981146,12.308343291981146,12.701877208019141,x,1,0.3861170409945771,None,,,,,5,001,2025-10-01_14h25.33.829, Motor Sequence Learning,,2025.1.1,None,2025-10-01 14h25.45.506259 +0530,
150,v,5,1,1,v,1,0.2840680420049466,None,1,1,5,1,,,,,12.712306333007291,,12.702446124982089,12.712306333007291,13.700281583005562,13.700281583005562,13.700281583005562,13.700281583005562,13.704855624993797,14.700402375019621,14.700402375019621,14.989449582993984,v,1,0.2840680420049466,None,,,,,5,001,2025-10-01_14h25.33.829, Motor Sequence Learning,,2025.1.1,None,2025-10-01 14h25.45.506259 +0530,
50,c,6,2,1,c,1,0.28911604202585295,None,1,2,6,2,,,,,14.999511250003707,,14.989963291969616,14.999511250003707,15.990795082994737,15.990795082994737,15.990795082994737,15.990795082994737,15.990795082994737,16.989275291969534,16.989275291969534,17.284844250010792,c,1,0.28911604202585295,None,,,,,5,001,2025-10-01_14h25.33.829, Motor Sequence Learning,,2025.1.1,None,2025-10-01 14h25.45.506259 +0530,
-150,z,7,3,1,z,1,0.383691998955328,None,1,3,7,3,,,,,17.29498737497488,,17.285404541995376,17.29498737497488,18.283607041987125,18.283607041987125,18.283607041987125,18.283607041987125,18.288126458006445,19.283644833019935,19.283644833019935,19.673374167003203,z,1,0.383691998955328,None,,,,,5,001,2025-10-01_14h25.33.829, Motor Sequence Learning,,2025.1.1,None,2025-10-01 14h25.45.506259 +0530,
-50,x,8,0,2,x,1,0.32516441599000245,None,2,0,8,0,,,,,19.683048958017025,,19.6738823329797,19.683048958017025,20.67282716697082,20.67282716697082,20.67282716697082,20.67282716697082,20.67282716697082,21.673182791972067,21.673182791972067,22.00184724997962,x,1,0.32516441599000245,None,,,,,5,001,2025-10-01_14h25.33.829, Motor Sequence Learning,,2025.1.1,None,2025-10-01 14h25.45.506259 +0530,
150,v,9,1,2,v,1,0.25510691601084545,None,2,1,9,1,,,,,22.011687624966726,,22.00240662501892,22.011687624966726,23.000246291980147,23.000246291980147,23.000246291980147,23.000246291980147,23.005046707985457,24.000163582968526,24.000163582968526,24.268537666997872,v,1,0.25510691601084545,None,,,,,5,001,2025-10-01_14h25.33.829, Motor Sequence Learning,,2025.1.1,None,2025-10-01 14h25.45.506259 +0530,
50,c,10,2,2,c,1,0.3912328750011511,None,2,2,10,2,,,,,24.278614707989618,,24.269152458000463,24.278614707989618,25.26704087498365,25.26704087498365,25.26704087498365,25.26704087498365,25.273087250010576,26.266881874995306,26.266881874995306,26.668833374977112,c,1,0.3912328750011511,None,,,,,5,001,2025-10-01_14h25.33.829, Motor Sequence Learning,,2025.1.1,None,2025-10-01 14h25.45.506259 +0530,
-150,z,11,3,2,z,1,0.29533995798556134,None,2,3,11,3,,,,,26.679142666980624,,26.669794458022807,26.679142666980624,27.66692004201468,27.66692004201468,27.66692004201468,27.66692004201468,27.67177224997431,28.66691308299778,28.66691308299778,28.968482249998488,z,1,0.29533995798556134,None,,,,,5,001,2025-10-01_14h25.33.829, Motor Sequence Learning,,2025.1.1,None,2025-10-01 14h25.45.506259 +0530,
-50,x,12,0,3,x,1,0.3861779159633443,None,3,0,12,0,,,,,28.97835887497058,,28.969119667017367,28.97835887497058,29.96693283302011,29.96693283302011,29.96693283302011,29.96693283302011,29.971697375003714,30.96696362498915,30.96696362498915,31.356476916989777,x,1,0.3861779159633443,None,,,,,5,001,2025-10-01_14h25.33.829, Motor Sequence Learning,,2025.1.1,None,2025-10-01 14h25.45.506259 +0530,
150,v,13,1,3,v,1,0.3992627079715021,None,3,1,13,1,,,,,31.366178500000387,,31.356977791991085,31.366178500000387,32.35621054196963,32.35621054196963,32.35621054196963,32.35621054196963,32.35621054196963,33.35585329198511,33.35585329198511,33.756485207995865,v,1,0.3992627079715021,None,,,,,5,001,2025-10-01_14h25.33.829, Motor Sequence Learning,,2025.1.1,None,2025-10-01 14h25.45.506259 +0530,
50,c,14,2,3,c,1,0.27191270800540224,None,3,2,14,2,,,,,33.76624270802131,,33.75699445797363,33.76624270802131,34.7553033750155,34.7553033750155,34.7553033750155,34.7553033750155,34.7553033750155,35.75609462498687,35.75609462498687,36.03512924996903,c,1,0.27191270800540224,None,,,,,5,001,2025-10-01_14h25.33.829, Motor Sequence Learning,,2025.1.1,None,2025-10-01 14h25.45.506259 +0530,
-150,z,15,3,3,z,1,0.2676518329535611,None,3,3,15,3,,,,,36.04487608297495,,36.03567833302077,36.04487608297495,37.03362299996661,37.03362299996661,37.03362299996661,37.03362299996661,37.038203249976505,38.03345754201291,38.03345754201291,38.30572037497768,z,1,0.2676518329535611,None,,,,,5,001,2025-10-01_14h25.33.829, Motor Sequence Learning,,2025.1.1,None,2025-10-01 14h25.45.506259 +0530,
-50,x,16,0,4,x,1,0.30655249900883064,None,4,0,16,0,,,,,38.31612762500299,,38.30621141701704,38.31612762500299,39.30490175000159,39.30490175000159,39.30490175000159,39.30490175000159,39.30490175000159,40.30023287498625,40.30023287498625,40.618510041967966,x,1,0.30655249900883064,None,,,,,5,001,2025-10-01_14h25.33.829, Motor Sequence Learning,,2025.1.1,None,2025-10-01 14h25.45.506259 +0530,
150,v,17,1,4,v,1,0.30188120796810836,None,4,1,17,1,,,,,40.62829233298544,,40.619077417009976,40.62829233298544,41.61690695799189,41.61690695799189,41.61690695799189,41.61690695799189,41.62163466698257,42.6169466249994,42.6169466249994,42.92339612497017,v,1,0.30188120796810836,None,,,,,5,001,2025-10-01_14h25.33.829, Motor Sequence Learning,,2025.1.1,None,2025-10-01 14h25.45.506259 +0530,
50,c,18,2,4,c,1,0.29227641597390175,None,4,2,18,2,,,,,42.93317475001095,,42.923903041984886,42.93317475001095,43.921547167003155,43.921547167003155,43.921547167003155,43.921547167003155,43.921547167003155,44.92253887502011,44.92253887502011,45.218730374996085,c,1,0.29227641597390175,None,,,,,5,001,2025-10-01_14h25.33.829, Motor Sequence Learning,,2025.1.1,None,2025-10-01 14h25.45.506259 +0530,
-150,z,19,3,4,z,1,0.31894520798232406,None,4,3,19,3,,,,,45.22875341697363,,45.21943045797525,45.22875341697363,46.217105916992296,46.217105916992296,46.217105916992296,46.217105916992296,46.222367457987275,47.21701533300802,47.21701533300802,47.53942733298754,z,1,0.31894520798232406,None,,,,,5,001,2025-10-01_14h25.33.829, Motor Sequence Learning,,2025.1.1,None,2025-10-01 14h25.45.506259 +0530,
-50,x,20,0,5,x,1,0.2987664999673143,None,5,0,20,0,,,,,47.54949091700837,,47.539928500016686,47.54949091700837,48.539518458012026,48.539518458012026,48.539518458012026,48.539518458012026,48.539518458012026,49.538886333000846,49.538886333000846,49.84011333301896,x,1,0.2987664999673143,None,,,,,5,001,2025-10-01_14h25.33.829, Motor Sequence Learning,,2025.1.1,None,2025-10-01 14h25.45.506259 +0530,
150,v,21,1,5,v,1,0.3333887499757111,None,5,1,21,1,,,,,49.867024458013475,,49.8405961249955,49.867024458013475,50.83917554200161,50.83917554200161,50.83917554200161,50.83917554200161,50.853985957975965,51.839301333006006,51.839301333006006,52.18524541700026,v,1,0.3333887499757111,None,,,,,5,001,2025-10-01_14h25.33.829, Motor Sequence Learning,,2025.1.1,None,2025-10-01 14h25.45.506259 +0530,
50,c,22,2,5,c,1,0.2538662079605274,None,5,2,22,2,,,,,52.19517870800337,,52.18590550002409,52.19517870800337,53.18349045800278,53.18349045800278,53.18349045800278,53.18349045800278,53.18961516697891,54.18362824997166,54.18362824997166,54.43871291697724,c,1,0.2538662079605274,None,,,,,5,001,2025-10-01_14h25.33.829, Motor Sequence Learning,,2025.1.1,None,2025-10-01 14h25.45.506259 +0530,
-150,z,23,3,5,z,1,0.27691275003599003,None,5,3,23,3,,,,,54.44979229196906,,54.43919616698986,54.44979229196906,55.43878995801788,55.43878995801788,55.43878995801788,55.43878995801788,55.43878995801788,56.439605499967,56.439605499967,56.71860641700914,z,1,0.27691275003599003,None,,,,,5,001,2025-10-01_14h25.33.829, Motor Sequence Learning,,2025.1.1,None,2025-10-01 14h25.45.506259 +0530,
-50,x,24,0,6,x,1,0.3235604999936186,None,6,0,24,0,,,,,56.728298917005304,,56.71930737502407,56.728298917005304,57.7168357920018,57.7168357920018,57.7168357920018,57.7168357920018,57.72164000000339,58.71697574999416,58.71697574999416,59.05224566697143,x,1,0.3235604999936186,None,,,,,5,001,2025-10-01_14h25.33.829, Motor Sequence Learning,,2025.1.1,None,2025-10-01 14h25.45.506259 +0530,
150,v,25,1,6,v,1,0.5092994580045342,None,6,1,25,1,,,,,59.062345166981686,,59.05316612496972,59.062345166981686,60.050241332966834,60.050241332966834,60.050241332966834,60.050241332966834,60.05513695802074,61.05011387501145,61.05011387501145,61.56865295796888,v,1,0.5092994580045342,None,,,,,5,001,2025-10-01_14h25.33.829, Motor Sequence Learning,,2025.1.1,None,2025-10-01 14h25.45.506259 +0530,
50,c,26,2,6,c,1,0.27649474900681525,None,6,2,26,2,,,,,61.57823400001507,,61.569226957974024,61.57823400001507,62.56696633301908,62.56696633301908,62.56696633301908,62.56696633301908,62.57262824999634,63.566839166975114,63.566839166975114,63.85157733300002,c,1,0.27649474900681525,None,,,,,5,001,2025-10-01_14h25.33.829, Motor Sequence Learning,,2025.1.1,None,2025-10-01 14h25.45.506259 +0530,
-150,z,27,3,6,z,1,0.2821813329937868,None,6,3,27,3,,,,,63.861223125015385,,63.8521533330204,63.861223125015385,64.85023649997311,64.85023649997311,64.85023649997311,64.85023649997311,64.85504020797089,65.85017945797881,65.85017945797881,66.13510658300947,z,1,0.2821813329937868,None,,,,,5,001,2025-10-01_14h25.33.829, Motor Sequence Learning,,2025.1.1,None,2025-10-01 14h25.45.506259 +0530,
-50,x,28,0,7,x,1,0.25475470803212374,None,7,0,28,0,,,,,66.145025292004,,66.13577375002205,66.145025292004,67.1335036670207,67.1335036670207,67.1335036670207,67.1335036670207,67.13858266698662,68.13347870798316,68.13347870798316,68.39973237499362,x,1,0.25475470803212374,None,,,,,5,001,2025-10-01_14h25.33.829, Motor Sequence Learning,,2025.1.1,None,2025-10-01 14h25.45.506259 +0530,
150,v,29,1,7,v,1,0.41223962494404987,None,7,1,29,1,,,,,68.40396420797333,,68.40018729201984,68.40396420797333,69.38949070801027,69.38949070801027,69.38949070801027,69.38949070801027,69.40005054196808,70.38895250001224,70.38895250001224,70.80645958299283,v,1,0.41223962494404987,None,,,,,5,001,2025-10-01_14h25.33.829, Motor Sequence Learning,,2025.1.1,None,2025-10-01 14h25.45.506259 +0530,
50,c,30,2,7,c,1,0.2884702080045827,None,7,2,30,2,,,,,70.81608758302173,,70.80698458297411,70.81608758302173,71.80552029202227,71.80552029202227,71.80552029202227,71.80552029202227,71.80552029202227,72.8057619999745,72.8057619999745,73.10214570799144,c,1,0.2884702080045827,None,,,,,5,001,2025-10-01_14h25.33.829, Motor Sequence Learning,,2025.1.1,None,2025-10-01 14h25.45.506259 +0530,
-150,z,31,3,7,z,1,0.21712658304022625,None,7,3,31,3,,,,,73.11136191699188,,73.10267337498954,73.11136191699188,74.10016529198037,74.10016529198037,74.10016529198037,74.10016529198037,74.10508912499063,75.1000004169764,75.1000004169764,75.32251433300553,z,1,0.21712658304022625,None,,,,,5,001,2025-10-01_14h25.33.829, Motor Sequence Learning,,2025.1.1,None,2025-10-01 14h25.45.506259 +0530,
-50,x,32,0,8,x,1,0.2889946660143323,None,8,0,32,0,,,,,75.33266383298906,,75.3230513749877,75.33266383298906,76.32198108301964,76.32198108301964,76.32198108301964,76.32198108301964,76.32198108301964,77.32212045800406,77.32212045800406,77.61891291697975,x,1,0.2889946660143323,None,,,,,5,001,2025-10-01_14h25.33.829, Motor Sequence Learning,,2025.1.1,None,2025-10-01 14h25.45.506259 +0530,
150,v,33,1,8,v,1,0.3943729579914361,None,8,1,33,1,,,,,77.62906254199333,,77.61960974999238,77.62906254199333,78.61694395798258,78.61694395798258,78.61694395798258,78.61694395798258,78.62234629201703,79.6167766249855,79.6167766249855,80.01885862497147,v,1,0.3943729579914361,None,,,,,5,001,2025-10-01_14h25.33.829, Motor Sequence Learning,,2025.1.1,None,2025-10-01 14h25.45.506259 +0530,
50,c,34,2,8,c,1,0.2651843329658732,None,8,2,34,2,,,,,80.02862612501485,,80.0195070829941,80.02862612501485,81.0167890000157,81.0167890000157,81.0167890000157,81.0167890000157,81.02137912501348,82.01683379197493,82.01683379197493,82.28507195797283,c,1,0.2651843329658732,None,,,,,5,001,2025-10-01_14h25.33.829, Motor Sequence Learning,,2025.1.1,None,2025-10-01 14h25.45.506259 +0530,
-150,z,35,3,8,z,1,0.28144516597967595,None,8,3,35,3,,,,,82.29484866699204,,82.28564866702072,82.29484866699204,83.28362241701689,83.28362241701689,83.28362241701689,83.28362241701689,83.28860091697425,84.28349666699069,84.28349666699069,84.56845983298263,z,1,0.28144516597967595,None,,,,,5,001,2025-10-01_14h25.33.829, Motor Sequence Learning,,2025.1.1,None,2025-10-01 14h25.45.506259 +0530,
-50,x,36,0,9,x,1,0.2721088749822229,None,9,0,36,0,,,,,84.57840616698377,,84.5690572920139,84.57840616698377,85.56672070798231,85.56672070798231,85.56672070798231,85.56672070798231,85.57076962501742,86.566800666973,86.566800666973,86.85187362501165,x,1,0.2721088749822229,None,,,,,5,001,2025-10-01_14h25.33.829, Motor Sequence Learning,,2025.1.1,None,2025-10-01 14h25.45.506259 +0530,
150,v,37,1,9,v,1,0.25561479094903916,None,9,1,37,1,,,,,86.86145154200494,,86.85246812499827,86.86145154200494,87.8502042919863,87.8502042919863,87.8502042919863,87.8502042919863,87.85499995801365,88.85013845801586,88.85013845801586,89.11853220796911,v,1,0.25561479094903916,None,,,,,5,001,2025-10-01_14h25.33.829, Motor Sequence Learning,,2025.1.1,None,2025-10-01 14h25.45.506259 +0530,
50,c,38,2,9,c,1,0.21602004097076133,None,9,2,38,2,,,,,89.12785112496931,,89.11909504199866,89.12785112496931,90.11689120798837,90.11689120798837,90.11689120798837,90.11689120798837,90.12191250000615,91.11679987498792,91.11679987498792,91.33530912501737,c,1,0.21602004097076133,None,,,,,5,001,2025-10-01_14h25.33.829, Motor Sequence Learning,,2025.1.1,None,2025-10-01 14h25.45.506259 +0530,
-150,z,39,3,9,z,1,0.32942587503930554,None,9,3,39,3,,,,,91.34496583300643,,91.33597700000973,91.34496583300643,92.33353229198838,92.33353229198838,92.33353229198838,92.33353229198838,92.33870566700352,93.33339316700585,93.33339316700585,93.66847391700139,z,1,0.32942587503930554,None,,,,,5,001,2025-10-01_14h25.33.829, Motor Sequence Learning,,2025.1.1,None,2025-10-01 14h25.45.506259 +0530,
-50,x,40,0,10,x,1,0.2800177079625428,None,10,0,40,0,,,,,93.67785624996759,,93.66908454202348,93.67785624996759,94.66687958297553,94.66687958297553,94.66687958297553,94.66687958297553,94.67209058301523,95.66678820800735,95.66678820800735,95.95165800000541,x,1,0.2800177079625428,None,,,,,5,001,2025-10-01_14h25.33.829, Motor Sequence Learning,,2025.1.1,None,2025-10-01 14h25.45.506259 +0530,
150,v,41,1,10,v,1,0.242385123972781,None,10,1,41,1,,,,,95.96091504197102,,95.95217879198026,95.96091504197102,96.95013983297395,96.95013983297395,96.95013983297395,96.95013983297395,96.9544133329764,97.95005350001156,97.95005350001156,98.20169162499951,v,1,0.242385123972781,None,,,,,5,001,2025-10-01_14h25.33.829, Motor Sequence Learning,,2025.1.1,None,2025-10-01 14h25.45.506259 +0530,
50,c,42,2,10,c,1,0.303585416986607,None,10,2,42,2,,,,,98.21096862497507,,98.20225316699361,98.21096862497507,99.20019016700098,99.20019016700098,99.20019016700098,99.20019016700098,99.20525004196679,100.20008141698781,100.20008141698781,100.50594095798442,c,1,0.303585416986607,None,,,,,5,001,2025-10-01_14h25.33.829, Motor Sequence Learning,,2025.1.1,None,2025-10-01 14h25.45.506259 +0530,
-150,z,43,3,10,z,1,0.3861887080129236,None,10,3,43,3,,,,,100.51602220797213,,100.50643187499372,100.51602220797213,101.5053205419681,101.5053205419681,101.5053205419681,101.5053205419681,101.5053205419681,102.50615320797078,102.50615320797078,102.90212308301125,z,1,0.3861887080129236,None,,,,,5,001,2025-10-01_14h25.33.829, Motor Sequence Learning,,2025.1.1,None,2025-10-01 14h25.45.506259 +0530,
-50,x,44,0,11,x,1,0.2704236240242608,None,11,0,44,0,,,,,102.9118421250023,,102.90280704200268,102.9118421250023,103.90014758298639,103.90014758298639,103.90014758298639,103.90014758298639,103.90532404201804,104.90006937499857,104.90006937499857,105.17326729197521,x,1,0.2704236240242608,None,,,,,5,001,2025-10-01_14h25.33.829, Motor Sequence Learning,,2025.1.1,None,2025-10-01 14h25.45.506259 +0530,
150,v,45,1,11,v,1,0.34383566601900384,None,11,1,45,1,,,,,105.18276150000747,,105.17378837498836,105.18276150000747,106.17250133299967,106.17250133299967,106.17250133299967,106.17250133299967,106.17250133299967,107.17263558297418,107.17263558297418,107.51839462498901,v,1,0.34383566601900384,None,,,,,5,001,2025-10-01_14h25.33.829, Motor Sequence Learning,,2025.1.1,None,2025-10-01 14h25.45.506259 +0530,
50,c,46,2,11,c,1,0.3814983739866875,None,11,2,46,2,,,,,107.52808395802276,,107.51908004202414,107.52808395802276,108.51674849999836,108.51674849999836,108.51674849999836,108.51674849999836,108.52117083297344,109.51688449998619,109.51688449998619,109.90170333301648,c,1,0.3814983739866875,None,,,,,5,001,2025-10-01_14h25.33.829, Motor Sequence Learning,,2025.1.1,None,2025-10-01 14h25.45.506259 +0530,
-150,z,47,3,11,z,1,0.3754769170191139,None,11,3,47,3,,,,,109.91125062498031,,109.90229133301182,109.91125062498031,110.90004758298164,110.90004758298164,110.90004758298164,110.90004758298164,110.9046212079702,111.90013629198074,111.90013629198074,112.28511887497734,z,1,0.3754769170191139,None,,,,,5,001,2025-10-01_14h25.33.829, Motor Sequence Learning,,2025.1.1,None,2025-10-01 14h25.45.506259 +0530,
-50,x,48,0,12,x,1,0.22087391599779949,None,12,0,48,0,,,,,112.29479962500045,,112.28582262498094,112.29479962500045,113.2834036250133,113.2834036250133,113.2834036250133,113.2834036250133,113.28837270801887,114.28346679196693,114.28346679196693,114.50584933301434,x,1,0.22087391599779949,None,,,,,5,001,2025-10-01_14h25.33.829, Motor Sequence Learning,,2025.1.1,None,2025-10-01 14h25.45.506259 +0530,
150,v,49,1,12,v,1,0.23689620796358213,None,12,1,49,1,,,,,114.5159534579725,,114.50634870800423,114.5159534579725,115.5057164580212,115.5057164580212,115.5057164580212,115.5057164580212,115.5057164580212,116.50627441698452,116.50627441698452,116.7514866249985,v,1,0.23689620796358213,None,,,,,5,001,2025-10-01_14h25.33.829, Motor Sequence Learning,,2025.1.1,None,2025-10-01 14h25.45.506259 +0530,
50,c,50,2,12,c,1,0.25424529099836946,None,12,2,50,2,,,,,116.76105324999662,,116.75206770800287,116.76105324999662,117.75002962502185,117.75002962502185,117.75002962502185,117.75002962502185,117.75460691697663,118.74998466699617,118.74998466699617,119.00704554200638,c,1,0.25424529099836946,None,,,,,5,001,2025-10-01_14h25.33.829, Motor Sequence Learning,,2025.1.1,None,2025-10-01 14h25.45.506259 +0530,
-150,z,51,3,12,z,1,0.385097750055138,None,12,3,51,3,,,,,119.0164165829774,,119.00756283302326,119.0164165829774,120.00479924998945,120.00479924998945,120.00479924998945,120.00479924998945,120.00479924998945,121.00004625000292,121.00004625000292,121.38942054199288,z,1,0.385097750055138,None,,,,,5,001,2025-10-01_14h25.33.829, Motor Sequence Learning,,2025.1.1,None,2025-10-01 14h25.45.506259 +0530,
-50,x,52,0,13,x,1,0.3890174999833107,None,13,0,52,0,,,,,121.41028762498172,,121.389956332976,121.41028762498172,122.38947029202245,122.38947029202245,122.38947029202245,122.38947029202245,122.40402812499087,123.3891367079923,123.3891367079923,123.78503108298173,x,1,0.3890174999833107,None,,,,,5,001,2025-10-01_14h25.33.829, Motor Sequence Learning,,2025.1.1,None,2025-10-01 14h25.45.506259 +0530,
150,v,53,1,13,v,1,0.3284639159683138,None,13,1,53,1,,,,,123.7930195829831,,123.78555466700345,123.7930195829831,124.78335841698572,124.78335841698572,124.78335841698572,124.78335841698572,124.78862908302108,125.78355008299695,125.78355008299695,126.11824308300857,v,1,0.3284639159683138,None,,,,,5,001,2025-10-01_14h25.33.829, Motor Sequence Learning,,2025.1.1,None,2025-10-01 14h25.45.506259 +0530,
50,c,54,2,13,c,1,0.3152380830142647,None,13,2,54,2,,,,,126.12663395801792,,126.11881620797794,126.12663395801792,127.11677525000414,127.11677525000414,127.11677525000414,127.11677525000414,127.12130283302395,128.1168302919832,128.1168302919832,128.43531604198506,c,1,0.3152380830142647,None,,,,,5,001,2025-10-01_14h25.33.829, Motor Sequence Learning,,2025.1.1,None,2025-10-01 14h25.45.506259 +0530,
-150,z,55,3,13,z,1,0.35059683298459277,None,13,3,55,3,,,,,128.44403445802163,,128.43599387496943,128.44403445802163,129.43328112497693,129.43328112497693,129.43328112497693,129.43328112497693,129.43766337499255,130.4333424170036,130.4333424170036,130.7890320000006,z,1,0.35059683298459277,None,,,,,5,001,2025-10-01_14h25.33.829, Motor Sequence Learning,,2025.1.1,None,2025-10-01 14h25.45.506259 +0530,
-50,x,56,0,14,x,1,0.2838292500237003,None,14,0,56,0,,,,,130.7995616249973,,130.78957941697445,130.7995616249973,131.78849337500287,131.78849337500287,131.78849337500287,131.78849337500287,131.78849337500287,132.78906654199818,132.78906654199818,133.08531391702127,x,1,0.2838292500237003,None,,,,,5,001,2025-10-01_14h25.33.829, Motor Sequence Learning,,2025.1.1,None,2025-10-01 14h25.45.506259 +0530,
150,v,57,1,14,v,1,0.4066289160400629,None,14,1,57,1,,,,,133.0940619999892,,133.08596358296927,133.0940619999892,134.08340583299287,134.08340583299287,134.08340583299287,134.08340583299287,134.08858391700778,135.0832438750076,135.0832438750076,135.50186816701898,v,1,0.4066289160400629,None,,,,,5,001,2025-10-01_14h25.33.829, Motor Sequence Learning,,2025.1.1,None,2025-10-01 14h25.45.506259 +0530,
50,c,58,2,14,c,1,0.2237666249857284,None,14,2,58,2,,,,,135.5104891670053,,135.5024740829831,135.5104891670053,136.49997720797546,136.49997720797546,136.49997720797546,136.49997720797546,136.50503195798956,137.50002649996895,137.50002649996895,137.73483029199997,c,1,0.2237666249857284,None,,,,,5,001,2025-10-01_14h25.33.829, Motor Sequence Learning,,2025.1.1,None,2025-10-01 14h25.45.506259 +0530,
-150,z,59,3,14,z,1,0.29140275000827387,None,14,3,59,3,,,,,137.74354950000998,,137.7354188329773,137.74354950000998,138.7332799169817,138.7332799169817,138.7332799169817,138.7332799169817,138.7378575420007,139.7334093329846,139.7334093329846,140.03509162500268,z,1,0.29140275000827387,None,,,,,5,001,2025-10-01_14h25.33.829, Motor Sequence Learning,,2025.1.1,None,2025-10-01 14h25.45.506259 +0530,
-50,x,60,0,15,v,0,0.3472709999768995,None,15,0,60,0,,,,,140.04367179202382,,140.03567270800704,140.04367179202382,141.033340999973,141.033340999973,141.033340999973,141.033340999973,141.0379850419704,142.03354212502018,142.03354212502018,142.3849162919796,v,0,0.3472709999768995,None,,,,,5,001,2025-10-01_14h25.33.829, Motor Sequence Learning,,2025.1.1,None,2025-10-01 14h25.45.506259 +0530,
150,v,61,1,15,v,1,0.340155916986987,None,15,1,61,1,,,,,142.394107332977,,142.38546320801834,142.394107332977,143.38358199998038,143.38358199998038,143.38358199998038,143.38358199998038,143.39010316698113,144.38348229200346,144.38348229200346,144.73499383300077,v,1,0.340155916986987,None,,,,,5,001,2025-10-01_14h25.33.829, Motor Sequence Learning,,2025.1.1,None,2025-10-01 14h25.45.506259 +0530,
50,c,62,2,15,c,1,0.31622358300955966,None,15,2,62,2,,,,,144.74469670798862,,144.73570745799225,144.74469670798862,145.7335691669723,145.7335691669723,145.7335691669723,145.7335691669723,145.73915879201377,146.7333727920195,146.7333727920195,147.05157299997518,c,1,0.31622358300955966,None,,,,,5,001,2025-10-01_14h25.33.829, Motor Sequence Learning,,2025.1.1,None,2025-10-01 14h25.45.506259 +0530,
-150,z,63,3,15,z,1,0.27860750001855195,None,15,3,63,3,,,,,147.06100733298808,,147.05216224998003,147.06100733298808,148.05001154198544,148.05001154198544,148.05001154198544,148.05001154198544,148.05454370798543,149.04989408300025,149.04989408300025,149.3351217500167,z,1,0.27860750001855195,None,,,,,5,001,2025-10-01_14h25.33.829, Motor Sequence Learning,,2025.1.1,None,2025-10-01 14h25.45.506259 +0530,
-50,x,64,0,16,x,1,0.2803843329893425,None,16,0,64,0,,,,,149.34454708301928,,149.33575720799854,149.34454708301928,150.33336774999043,150.33336774999043,150.33336774999043,150.33336774999043,150.3385192080168,151.3332272080006,151.3332272080006,151.61816058302065,x,1,0.2803843329893425,None,,,,,5,001,2025-10-01_14h25.33.829, Motor Sequence Learning,,2025.1.1,None,2025-10-01 14h25.45.506259 +0530,
150,v,65,1,16,v,1,0.2506356660160236,None,16,1,65,1,,,,,151.62714595801663,,151.61873633298092,151.62714595801663,152.6166332080029,152.6166332080029,152.6166332080029,152.6166332080029,152.6220177920186,153.61675258300966,153.61675258300966,153.8734408330056,v,1,0.2506356660160236,None,,,,,5,001,2025-10-01_14h25.33.829, Motor Sequence Learning,,2025.1.1,None,2025-10-01 14h25.45.506259 +0530,
50,c,66,2,16,c,1,0.2749747919733636,None,16,2,66,2,,,,,153.88280866696732,,153.8739887920092,153.88280866696732,154.8721070419997,154.8721070419997,154.8721070419997,154.8721070419997,154.8721070419997,155.8724231669912,155.8724231669912,156.15149091702187,c,1,0.2749747919733636,None,,,,,5,001,2025-10-01_14h25.33.829, Motor Sequence Learning,,2025.1.1,None,2025-10-01 14h25.45.506259 +0530,
-150,z,67,3,16,z,1,0.2693384999874979,None,16,3,67,3,,,,,156.1605279169744,,156.1520545000094,156.1605279169744,157.14999679202447,157.14999679202447,157.14999679202447,157.14999679202447,157.1540342500084,158.15005816699704,158.15005816699704,158.42265395796858,z,1,0.2693384999874979,None,,,,,5,001,2025-10-01_14h25.33.829, Motor Sequence Learning,,2025.1.1,None,2025-10-01 14h25.45.506259 +0530,
-50,x,68,0,17,x,1,0.2655102499993518,None,17,0,68,0,,,,,158.4325465419679,,158.4231677079806,158.4325465419679,159.42166441702284,159.42166441702284,159.42166441702284,159.42166441702284,159.42166441702284,160.42178112501279,160.42178112501279,160.68980945798103,x,1,0.2655102499993518,None,,,,,5,001,2025-10-01_14h25.33.829, Motor Sequence Learning,,2025.1.1,None,2025-10-01 14h25.45.506259 +0530,
150,v,69,1,17,v,1,0.3383672080235556,None,17,1,69,1,,,,,160.6992345000035,,160.69032854196848,160.6992345000035,161.69102595798904,161.69102595798904,161.69102595798904,161.69102595798904,161.69102595798904,162.6888949580025,162.6888949580025,163.0350658330135,v,1,0.3383672080235556,None,,,,,5,001,2025-10-01_14h25.33.829, Motor Sequence Learning,,2025.1.1,None,2025-10-01 14h25.45.506259 +0530,
50,c,70,2,17,c,1,0.24674262496409938,None,17,2,70,2,,,,,163.04476050002268,,163.03592062497046,163.04476050002268,164.0333168329671,164.0333168329671,164.0333168329671,164.0333168329671,164.03874095797073,165.03339424997102,165.03339424997102,165.28478445799556,c,1,0.24674262496409938,None,,,,,5,001,2025-10-01_14h25.33.829, Motor Sequence Learning,,2025.1.1,None,2025-10-01 14h25.45.506259 +0530,
-150,z,71,3,17,z,1,0.2715327499900013,None,17,3,71,3,,,,,165.29391537501942,,165.28537933301413,165.29391537501942,166.28340062499046,166.28340062499046,166.28340062499046,166.28340062499046,166.28810374997556,167.2835025829845,167.2835025829845,167.56834495801013,z,1,0.2715327499900013,None,,,,,5,001,2025-10-01_14h25.33.829, Motor Sequence Learning,,2025.1.1,None,2025-10-01 14h25.45.506259 +0530,
-50,x,72,0,18,x,1,0.30571337399305776,None,18,0,72,0,,,,,167.57743100001244,,167.56891158298822,167.57743100001244,168.56671762501355,168.56671762501355,168.56671762501355,168.56671762501355,168.57188420800958,169.5665274580242,169.5665274580242,169.88546708301874,x,1,0.30571337399305776,None,,,,,5,001,2025-10-01_14h25.33.829, Motor Sequence Learning,,2025.1.1,None,2025-10-01 14h25.45.506259 +0530,
150,v,73,1,18,v,1,0.5514020830160007,None,18,1,73,1,,,,,169.89483287499752,,169.88614399998914,169.89483287499752,170.8833941249759,170.8833941249759,170.8833941249759,170.8833941249759,170.88864949997514,171.88352912501432,171.88352912501432,172.43924591701943,v,1,0.5514020830160007,None,,,,,5,001,2025-10-01_14h25.33.829, Motor Sequence Learning,,2025.1.1,None,2025-10-01 14h25.45.506259 +0530,
50,c,74,2,18,c,1,0.38819870800944045,None,18,2,74,2,,,,,172.449085249973,,172.4397745829774,172.449085249973,173.43910104199313,173.43910104199313,173.43910104199313,173.43910104199313,173.43910104199313,174.4389402079978,174.4389402079978,174.8349249169696,c,1,0.38819870800944045,None,,,,,5,001,2025-10-01_14h25.33.829, Motor Sequence Learning,,2025.1.1,None,2025-10-01 14h25.45.506259 +0530,
-150,z,75,3,18,z,1,0.33564449998084456,None,18,3,75,3,,,,,174.84435758297332,,174.83555329201045,174.84435758297332,175.8334310830105,175.8334310830105,175.8334310830105,175.8334310830105,175.83865804201923,176.83329137502005,176.83329137502005,177.17271983297542,z,1,0.33564449998084456,None,,,,,5,001,2025-10-01_14h25.33.829, Motor Sequence Learning,,2025.1.1,None,2025-10-01 14h25.45.506259 +0530,
-50,x,76,0,19,x,1,0.45243991701863706,None,19,0,76,0,,,,,177.1826050420059,,177.17323570797453,177.1826050420059,178.17221612500725,178.17221612500725,178.17221612500725,178.17221612500725,178.17221612500725,179.1724800830125,179.1724800830125,179.63496583298547,x,1,0.45243991701863706,None,,,,,5,001,2025-10-01_14h25.33.829, Motor Sequence Learning,,2025.1.1,None,2025-10-01 14h25.45.506259 +0530,
150,v,77,1,19,v,1,0.3525418330100365,None,19,1,77,1,,,,,179.64473479200387,,179.63553550001234,179.64473479200387,180.63331716699759,180.63331716699759,180.63331716699759,180.63331716699759,180.6382273749914,181.63334437500453,181.63334437500453,181.98993362498004,v,1,0.3525418330100365,None,,,,,5,001,2025-10-01_14h25.33.829, Motor Sequence Learning,,2025.1.1,None,2025-10-01 14h25.45.506259 +0530,
50,c,78,2,19,c,1,0.287538125005085,None,19,2,78,2,,,,,181.99970795802074,,181.99044299998786,181.99970795802074,182.98804212501273,182.98804212501273,182.98804212501273,182.98804212501273,182.98804212501273,183.9883062079898,183.9883062079898,184.28478287498,c,1,0.287538125005085,None,,,,,5,001,2025-10-01_14h25.33.829, Motor Sequence Learning,,2025.1.1,None,2025-10-01 14h25.45.506259 +0530,
-150,z,79,3,19,z,1,0.3765332080074586,None,19,3,79,3,,,,,184.29479095799616,,184.28537358297035,184.29479095799616,185.2833371249726,185.2833371249726,185.2833371249726,185.2833371249726,185.28855666698655,186.28324162500212,186.28324162500212,186.66873016697355,z,1,0.3765332080074586,None,,,,,5,001,2025-10-01_14h25.33.829, Motor Sequence Learning,,2025.1.1,None,2025-10-01 14h25.45.506259 +0530,
-50,x,80,0,20,x,1,0.32162829098524526,None,20,0,80,0,,,,,186.67913787497673,,186.66967708297307,186.67913787497673,187.66655266698217,187.66655266698217,187.66655266698217,187.66655266698217,187.6706062919693,188.66664137499174,188.66664137499174,189.00200837501325,x,1,0.32162829098524526,None,,,,,5,001,2025-10-01_14h25.33.829, Motor Sequence Learning,,2025.1.1,None,2025-10-01 14h25.45.506259 +0530,
150,v,81,1,20,v,1,0.26758062397129834,None,20,1,81,1,,,,,189.01204820798011,,189.00266870798077,189.01204820798011,189.9999492079951,189.9999492079951,189.9999492079951,189.9999492079951,190.00452045799466,191.00001924997196,191.00001924997196,191.27214070799528,v,1,0.26758062397129834,None,,,,,5,001,2025-10-01_14h25.33.829, Motor Sequence Learning,,2025.1.1,None,2025-10-01 14h25.45.506259 +0530,
50,c,82,2,20,c,1,0.29104833299061283,None,20,2,82,2,,,,,191.2823094999767,,191.27265916700708,191.2823094999767,192.27174095797818,192.27174095797818,192.27174095797818,192.27174095797818,192.27174095797818,193.26648033299716,193.26648033299716,193.5682720830082,c,1,0.29104833299061283,None,,,,,5,001,2025-10-01_14h25.33.829, Motor Sequence Learning,,2025.1.1,None,2025-10-01 14h25.45.506259 +0530,
-150,z,83,3,20,z,1,0.4408467080211267,None,20,3,83,3,,,,,193.577725708019,,193.5688422920066,193.577725708019,194.56644220801536,194.56644220801536,194.56644220801536,194.56644220801536,194.57098874996882,195.56661112501752,195.56661112501752,196.01853162498446,z,1,0.4408467080211267,None,,,,,5,001,2025-10-01_14h25.33.829, Motor Sequence Learning,,2025.1.1,None,2025-10-01 14h25.45.506259 +0530,
-50,x,84,0,21,x,1,0.3039964579511434,None,21,0,84,0,,,,,196.0293882919941,,196.01918891700916,196.0293882919941,197.01661333302036,197.01661333302036,197.01661333302036,197.01661333302036,197.0218340419815,198.0165099169826,198.0165099169826,198.32320583297405,x,1,0.3039964579511434,None,,,,,5,001,2025-10-01_14h25.33.829, Motor Sequence Learning,,2025.1.1,None,2025-10-01 14h25.45.506259 +0530,
150,v,85,1,21,v,1,0.28078895795624703,None,21,1,85,1,,,,,198.33252624998568,,198.3236990830046,198.33252624998568,199.32258079200983,199.32258079200983,199.32258079200983,199.32258079200983,199.32258079200983,200.32268924999516,200.32268924999516,200.60646304197144,v,1,0.28078895795624703,None,,,,,5,001,2025-10-01_14h25.33.829, Motor Sequence Learning,,2025.1.1,None,2025-10-01 14h25.45.506259 +0530,
50,c,86,2,21,c,1,0.25884345796657726,None,21,2,86,2,,,,,200.61593266698765,,200.60696441697655,200.61593266698765,201.60451816697605,201.60451816697605,201.60451816697605,201.60451816697605,201.60451816697605,202.60552570800064,202.60552570800064,202.86832620797213,c,1,0.25884345796657726,None,,,,,5,001,2025-10-01_14h25.33.829, Motor Sequence Learning,,2025.1.1,None,2025-10-01 14h25.45.506259 +0530,
-150,z,87,3,21,z,1,0.35573087399825454,None,21,3,87,3,,,,,202.877910042007,,202.8689307079767,202.877910042007,203.8664807919995,203.8664807919995,203.8664807919995,203.8664807919995,203.87057774997083,204.86657970800297,204.86657970800297,205.23541008296888,z,1,0.35573087399825454,None,,,,,5,001,2025-10-01_14h25.33.829, Motor Sequence Learning,,2025.1.1,None,2025-10-01 14h25.45.506259 +0530,
-50,x,88,0,22,x,1,0.2831650419975631,None,22,0,88,0,,,,,205.24563395802397,,205.2360819170135,205.24563395802397,206.2333111250191,206.2333111250191,206.2333111250191,206.2333111250191,206.2378909169929,207.23311508301413,207.23311508301413,207.5182693329989,x,1,0.2831650419975631,None,,,,,5,001,2025-10-01_14h25.33.829, Motor Sequence Learning,,2025.1.1,None,2025-10-01 14h25.45.506259 +0530,
150,v,89,1,22,v,1,0.27888745797099546,None,22,1,89,1,,,,,207.5280242919689,,207.5188444579835,207.5280242919689,208.51665258296998,208.51665258296998,208.51665258296998,208.51665258296998,208.52245812502224,209.5164521249826,209.5164521249826,209.8019880829961,v,1,0.27888745797099546,None,,,,,5,001,2025-10-01_14h25.33.829, Motor Sequence Learning,,2025.1.1,None,2025-10-01 14h25.45.506259 +0530,
50,c,90,2,22,c,1,0.2711478329729289,None,22,2,90,2,,,,,209.81176083302125,,209.80253283301136,209.81176083302125,210.8000272079953,210.8000272079953,210.8000272079953,210.8000272079953,210.80489629198564,211.79996199999005,211.79996199999005,212.08496912498958,c,1,0.2711478329729289,None,,,,,5,001,2025-10-01_14h25.33.829, Motor Sequence Learning,,2025.1.1,None,2025-10-01 14h25.45.506259 +0530,
-150,z,91,3,22,z,1,0.2969333329820074,None,22,3,91,3,,,,,212.09480041702045,,212.08565929200267,212.09480041702045,213.08315112499986,213.08315112499986,213.08315112499986,213.08315112499986,213.0873704580008,214.08324966701912,214.08324966701912,214.38525866699638,z,1,0.2969333329820074,None,,,,,5,001,2025-10-01_14h25.33.829, Motor Sequence Learning,,2025.1.1,None,2025-10-01 14h25.45.506259 +0530,
-50,x,92,0,23,x,1,0.414013082976453,None,23,0,92,0,,,,,214.3951554580126,,214.38604845799273,214.3951554580126,215.38328812498366,215.38328812498366,215.38328812498366,215.38328812498366,215.38849416701123,216.38315587502439,216.38315587502439,216.801510624995,x,1,0.414013082976453,None,,,,,5,001,2025-10-01_14h25.33.829, Motor Sequence Learning,,2025.1.1,None,2025-10-01 14h25.45.506259 +0530,
150,v,93,1,23,v,1,0.24832270800834522,None,23,1,93,1,,,,,216.81116345798364,,216.80207279202295,216.81116345798364,217.79990216699662,217.79990216699662,217.79990216699662,217.79990216699662,217.80452583299484,218.79983179201372,218.79983179201372,219.05196766700828,v,1,0.24832270800834522,None,,,,,5,001,2025-10-01_14h25.33.829, Motor Sequence Learning,,2025.1.1,None,2025-10-01 14h25.45.506259 +0530,
50,c,94,2,23,c,1,0.23421658301958814,None,23,2,94,2,,,,,219.06192712497432,,219.05263195798034,219.06192712497432,220.0499725419795,220.0499725419795,220.0499725419795,220.0499725419795,220.05495529196924,221.04984616697766,221.04984616697766,221.28974679199746,c,1,0.23421658301958814,None,,,,,5,001,2025-10-01_14h25.33.829, Motor Sequence Learning,,2025.1.1,None,2025-10-01 14h25.45.506259 +0530,
-150,z,95,3,23,z,1,0.26622045796830207,None,23,3,95,3,,,,,221.29921983298846,,221.29031000001123,221.29921983298846,222.28933670796687,222.28933670796687,222.28933670796687,222.28933670796687,222.28933670796687,223.28875299997162,223.28875299997162,223.5662964580115,z,1,0.26622045796830207,None,,,,,5,001,2025-10-01_14h25.33.829, Motor Sequence Learning,,2025.1.1,None,2025-10-01 14h25.45.506259 +0530,
-50,x,96,0,24,x,1,0.2683136250125244,None,24,0,96,0,,,,,223.570744208002,,223.5667682919884,223.570744208002,224.5557327499846,224.5557327499846,224.5557327499846,224.5557327499846,224.56649100000504,225.55564099998446,225.55564099998446,225.83527258300455,x,1,0.2683136250125244,None,,,,,5,001,2025-10-01_14h25.33.829, Motor Sequence Learning,,2025.1.1,None,2025-10-01 14h25.45.506259 +0530,
150,v,97,1,24,v,1,0.3524805419729091,None,24,1,97,1,,,,,225.8448719169828,,225.83581554197008,225.8448719169828,226.8331746669719,226.8331746669719,226.8331746669719,226.8331746669719,226.83797391701955,227.83329137502005,227.83329137502005,228.19026125001255,v,1,0.3524805419729091,None,,,,,5,001,2025-10-01_14h25.33.829, Motor Sequence Learning,,2025.1.1,None,2025-10-01 14h25.45.506259 +0530,
50,c,98,2,24,c,1,0.26815804198849946,None,24,2,98,2,,,,,228.20254879200365,,228.19080824998673,228.20254879200365,229.1903745830059,229.1903745830059,229.1903745830059,229.1903745830059,229.19979812501697,230.18868979200488,230.18868979200488,230.46811916702427,c,1,0.26815804198849946,None,,,,,5,001,2025-10-01_14h25.33.829, Motor Sequence Learning,,2025.1.1,None,2025-10-01 14h25.45.506259 +0530,
-150,z,99,3,24,z,1,0.3491067500435747,None,24,3,99,3,,,,,230.47788741701515,,230.46868666697992,230.47788741701515,231.46650262497133,231.46650262497133,231.46650262497133,231.46650262497133,231.471051874978,232.46663287497358,232.46663287497358,232.81864758301526,z,1,0.3491067500435747,None,,,,,5,001,2025-10-01_14h25.33.829, Motor Sequence Learning,,2025.1.1,None,2025-10-01 14h25.45.506259 +0530,
-50,x,100,0,25,x,1,0.32420608296524733,None,25,0,100,0,,,,,232.8283442920074,,232.8192701669759,232.8283442920074,233.81673895800486,233.81673895800486,233.81673895800486,233.81673895800486,233.8229645420215,234.8165452919784,234.8165452919784,235.15207537502283,x,1,0.32420608296524733,None,,,,,5,001,2025-10-01_14h25.33.829, Motor Sequence Learning,,2025.1.1,None,2025-10-01 14h25.45.506259 +0530,
150,v,101,1,25,v,1,0.2728006670367904,None,25,1,101,1,,,,,235.16236999997636,,235.15293462498812,235.16236999997636,236.14984270802233,236.14984270802233,236.14984270802233,236.14984270802233,236.1546204580227,237.14987462497083,237.14987462497083,237.43550495797535,v,1,0.2728006670367904,None,,,,,5,001,2025-10-01_14h25.33.829, Motor Sequence Learning,,2025.1.1,None,2025-10-01 14h25.45.506259 +0530,
50,c,102,2,25,c,1,0.3105630000354722,None,25,2,102,2,,,,,237.44524204201298,,237.4361960000242,237.44524204201298,238.43302241701167,238.43302241701167,238.43302241701167,238.43302241701167,238.4382192500052,239.43315904197516,239.43315904197516,239.75184787501348,c,1,0.3105630000354722,None,,,,,5,001,2025-10-01_14h25.33.829, Motor Sequence Learning,,2025.1.1,None,2025-10-01 14h25.45.506259 +0530,
-150,z,103,3,25,z,1,0.36069583299104124,None,25,3,103,3,,,,,239.76122895797016,,239.75237591698533,239.76122895797016,240.74979387497297,240.74979387497297,240.74979387497297,240.74979387497297,240.75437433301704,241.74991020798916,241.74991020798916,242.11831654200796,z,1,0.36069583299104124,None,,,,,5,001,2025-10-01_14h25.33.829, Motor Sequence Learning,,2025.1.1,None,2025-10-01 14h25.45.506259 +0530,
-50,x,104,0,26,x,1,0.2770870829699561,None,26,0,104,0,,,,,242.1279911249876,,242.1188463330036,242.1279911249876,243.11664929200197,243.11664929200197,243.11664929200197,243.11664929200197,243.1222780829994,244.11648379202234,244.11648379202234,244.40157845796784,x,1,0.2770870829699561,None,,,,,5,001,2025-10-01_14h25.33.829, Motor Sequence Learning,,2025.1.1,None,2025-10-01 14h25.45.506259 +0530,
150,v,105,1,26,v,1,0.262507707986515,None,26,1,105,1,,,,,244.41137433302356,,244.40211716701742,244.41137433302356,245.3999317919952,245.3999317919952,245.3999317919952,245.3999317919952,245.40515937499003,246.4000653749681,246.4000653749681,246.66859045799356,v,1,0.262507707986515,None,,,,,5,001,2025-10-01_14h25.33.829, Motor Sequence Learning,,2025.1.1,None,2025-10-01 14h25.45.506259 +0530,
50,c,106,2,26,c,1,0.3008976239943877,None,26,2,106,2,,,,,246.6786775829969,,246.6694273329922,246.6786775829969,247.66635462502018,247.66635462502018,247.66635462502018,247.66635462502018,247.6704945419915,248.666439374967,248.666439374967,248.97245250002015,c,1,0.3008976239943877,None,,,,,5,001,2025-10-01_14h25.33.829, Motor Sequence Learning,,2025.1.1,None,2025-10-01 14h25.45.506259 +0530,
-150,z,107,3,26,z,1,0.49709358299151063,None,26,3,107,3,,,,,248.98236804199405,,248.9730054999818,248.98236804199405,249.97311266697943,249.97311266697943,249.97311266697943,249.97311266697943,249.97311266697943,250.96633404202294,250.96633404202294,251.46864974999335,z,1,0.49709358299151063,None,,,,,5,001,2025-10-01_14h25.33.829, Motor Sequence Learning,,2025.1.1,None,2025-10-01 14h25.45.506259 +0530,
-50,x,108,0,27,x,1,0.24778516596416011,None,27,0,108,0,,,,,251.47879475000082,,251.46952033299021,251.47879475000082,252.46674062497914,252.46674062497914,252.46674062497914,252.46674062497914,252.47300345799886,253.46648520801682,253.46648520801682,253.7186868750141,x,1,0.24778516596416011,None,,,,,5,001,2025-10-01_14h25.33.829, Motor Sequence Learning,,2025.1.1,None,2025-10-01 14h25.45.506259 +0530,
150,v,109,1,27,v,1,0.2448964579962194,None,27,1,109,1,,,,,253.7286445829668,,253.719549832982,253.7286445829668,254.71648062497843,254.71648062497843,254.71648062497843,254.71648062497843,254.72147566697095,255.7165584170143,255.7165584170143,255.9680953330244,v,1,0.2448964579962194,None,,,,,5,001,2025-10-01_14h25.33.829, Motor Sequence Learning,,2025.1.1,None,2025-10-01 14h25.45.506259 +0530,
50,c,110,2,27,c,1,0.27482962497742847,None,27,2,110,2,,,,,255.97799337498145,,255.96891983301612,255.97799337498145,256.9663277079817,256.9663277079817,256.9663277079817,256.9663277079817,256.9706095419824,257.9664031249704,257.9664031249704,258.2514789580018,c,1,0.27482962497742847,None,,,,,5,001,2025-10-01_14h25.33.829, Motor Sequence Learning,,2025.1.1,None,2025-10-01 14h25.45.506259 +0530,
-150,z,111,3,27,z,1,0.2874698329833336,None,27,3,111,3,,,,,258.2615172499791,,258.2522172079771,258.2615172499791,259.24965433299076,259.24965433299076,259.24965433299076,259.24965433299076,259.2542806669953,260.2497286669677,260.2497286669677,260.53950545797125,z,1,0.2874698329833336,None,,,,,5,001,2025-10-01_14h25.33.829, Motor Sequence Learning,,2025.1.1,None,2025-10-01 14h25.45.506259 +0530,
-50,x,112,0,28,x,1,0.3265608739457093,None,28,0,112,0,,,,,260.5490229999996,,260.5400249999948,260.5490229999996,261.53817866701866,261.53817866701866,261.53817866701866,261.53817866701866,261.53817866701866,262.53865512501216,262.53865512501216,262.86812233302044,x,1,0.3265608739457093,None,,,,,5,001,2025-10-01_14h25.33.829, Motor Sequence Learning,,2025.1.1,None,2025-10-01 14h25.45.506259 +0530,
150,v,113,1,28,v,1,0.32165337400510907,None,28,1,113,1,,,,,262.87771845801035,,262.8686864170013,262.87771845801035,263.86651529197115,263.86651529197115,263.86651529197115,263.86651529197115,263.87281508301385,264.866399624967,264.866399624967,265.19023758301046,v,1,0.32165337400510907,None,,,,,5,001,2025-10-01_14h25.33.829, Motor Sequence Learning,,2025.1.1,None,2025-10-01 14h25.45.506259 +0530,
50,c,114,2,28,c,1,0.2592083750059828,None,28,2,114,2,,,,,265.1995421249885,,265.190787791973,265.1995421249885,266.1891080419882,266.1891080419882,266.1891080419882,266.1891080419882,266.1891080419882,267.1896923329914,267.1896923329914,267.4520802500192,c,1,0.2592083750059828,None,,,,,5,001,2025-10-01_14h25.33.829, Motor Sequence Learning,,2025.1.1,None,2025-10-01 14h25.45.506259 +0530,
-150,z,115,3,28,z,1,0.22322504100156948,None,28,3,115,3,,,,,267.4620454579708,,267.4527627499774,267.4620454579708,268.4498775830143,268.4498775830143,268.4498775830143,268.4498775830143,268.45540037500905,269.449717667012,269.449717667012,269.6849582499708,z,1,0.22322504100156948,None,,,,,5,001,2025-10-01_14h25.33.829, Motor Sequence Learning,,2025.1.1,None,2025-10-01 14h25.45.506259 +0530,
-50,x,116,0,29,x,1,0.27165916602825746,None,29,0,116,0,,,,,269.6948416670202,,269.6854753330117,269.6948416670202,270.6831583749736,270.6831583749736,270.6831583749736,270.6831583749736,270.68835870799376,271.6832413750235,271.6832413750235,271.96827487502014,x,1,0.27165916602825746,None,,,,,5,001,2025-10-01_14h25.33.829, Motor Sequence Learning,,2025.1.1,None,2025-10-01 14h25.45.506259 +0530,
150,v,117,1,29,v,1,0.4206251240102574,None,29,1,117,1,,,,,271.97858399996767,,271.9690070420038,271.97858399996767,272.96643933298765,272.96643933298765,272.96643933298765,272.96643933298765,272.9721385000157,273.9663162920042,273.9663162920042,274.39033783297054,v,1,0.4206251240102574,None,,,,,5,001,2025-10-01_14h25.33.829, Motor Sequence Learning,,2025.1.1,None,2025-10-01 14h25.45.506259 +0530,
50,c,118,2,29,c,1,0.25400579103734344,None,29,2,118,2,,,,,274.41691516700666,,274.3908509169705,274.41691516700666,275.3894515829743,275.3894515829743,275.3894515829743,275.3894515829743,275.4038057500147,276.38882629200816,276.38882629200816,276.6515911250026,c,1,0.25400579103734344,None,,,,,5,001,2025-10-01_14h25.33.829, Motor Sequence Learning,,2025.1.1,None,2025-10-01 14h25.45.506259 +0530,
-150,z,119,3,29,z,1,0.28513129201019183,None,29,3,119,3,,,,,276.6620743329986,,276.65238691697596,276.6620743329986,277.64971583301667,277.64971583301667,277.64971583301667,277.64971583301667,277.65464812499704,278.64965454197954,278.64965454197954,278.93943970801774,z,1,0.28513129201019183,None,,,,,5,001,2025-10-01_14h25.33.829, Motor Sequence Learning,,2025.1.1,None,2025-10-01 14h25.45.506259 +0530,
-50,x,120,0,30,x,1,0.28515766601776704,None,30,0,120,0,,,,,278.94891470798757,,278.93997883301927,278.94891470798757,279.9383055419894,279.9383055419894,279.9383055419894,279.9383055419894,279.9383055419894,280.9385912080179,280.9385912080179,281.2352232920239,x,1,0.28515766601776704,None,,,,,5,001,2025-10-01_14h25.33.829, Motor Sequence Learning,,2025.1.1,None,2025-10-01 14h25.45.506259 +0530,
150,v,121,1,30,v,1,0.2977864170097746,None,30,1,121,1,,,,,281.2452847500099,,281.2361017499934,281.2452847500099,282.2330105829751,282.2330105829751,282.2330105829751,282.2330105829751,282.2383842919953,283.23303558299085,283.23303558299085,283.5347436669981,v,1,0.2977864170097746,None,,,,,5,001,2025-10-01_14h25.33.829, Motor Sequence Learning,,2025.1.1,None,2025-10-01 14h25.45.506259 +0530,
50,c,122,2,30,c,1,0.3316343749756925,None,30,2,122,2,,,,,283.5443098329706,,283.53527808299987,283.5443098329706,284.53314154199325,284.53314154199325,284.53314154199325,284.53314154199325,284.5394251670223,285.5329893750022,285.5329893750022,285.86810662498465,c,1,0.3316343749756925,None,,,,,5,001,2025-10-01_14h25.33.829, Motor Sequence Learning,,2025.1.1,None,2025-10-01 14h25.45.506259 +0530,
-150,z,123,3,30,z,1,0.3002386660082266,None,30,3,123,3,,,,,285.8779290000093,,285.8686447920045,285.8779290000093,286.8666041669785,286.8666041669785,286.8666041669785,286.8666041669785,286.8719217919861,287.8663142080186,287.8663142080186,288.17856333300006,z,1,0.3002386660082266,None,,,,,5,001,2025-10-01_14h25.33.829, Motor Sequence Learning,,2025.1.1,None,2025-10-01 14h25.45.506259 +0530,
-50,x,124,0,31,x,1,0.32650237501366064,None,31,0,124,0,,,,,288.18236529198475,,288.17902183299884,288.18236529198475,289.1729396249866,289.1729396249866,289.1729396249866,289.1729396249866,289.1729396249866,290.17206208297284,290.17206208297284,290.50193462497555,x,1,0.32650237501366064,None,,,,,5,001,2025-10-01_14h25.33.829, Motor Sequence Learning,,2025.1.1,None,2025-10-01 14h25.45.506259 +0530,
150,v,125,1,31,v,1,0.302925291005522,None,31,1,125,1,,,,,290.5123017919832,,290.502786291996,290.5123017919832,291.49971795798047,291.49971795798047,291.49971795798047,291.49971795798047,291.50492983299773,292.499604541983,292.499604541983,292.8062236669939,v,1,0.302925291005522,None,,,,,5,001,2025-10-01_14h25.33.829, Motor Sequence Learning,,2025.1.1,None,2025-10-01 14h25.45.506259 +0530,
50,c,126,2,31,c,1,0.2594352920423262,None,31,2,126,2,,,,,292.8160314579727,,292.80675054201856,292.8160314579727,293.8043582920218,293.8043582920218,293.8043582920218,293.8043582920218,293.8043582920218,294.79967712500365,294.79967712500365,295.06815966701834,c,1,0.2594352920423262,None,,,,,5,001,2025-10-01_14h25.33.829, Motor Sequence Learning,,2025.1.1,None,2025-10-01 14h25.45.506259 +0530,
-150,z,127,3,31,z,1,0.16200604097684845,None,31,3,127,3,,,,,295.0781429579947,,295.0688919579843,295.0781429579947,296.0664282920188,296.0664282920188,296.0664282920188,296.0664282920188,296.071454207995,297.0663672499941,297.0663672499941,297.23510308301775,z,1,0.16200604097684845,None,,,,,5,001,2025-10-01_14h25.33.829, Motor Sequence Learning,,2025.1.1,None,2025-10-01 14h25.45.506259 +0530,
-50,x,128,0,32,x,1,2.0600037499680184,None,32,0,128,0,,,,,297.2449824169744,,297.23574729199754,297.2449824169744,298.23309049999807,298.23309049999807,298.23309049999807,298.23309049999807,298.2375456250156,299.23299729201244,299.23299729201244,299.2337267919793,x,1,2.0600037499680184,None,,,,,5,001,2025-10-01_14h25.33.829, Motor Sequence Learning,,2025.1.1,None,2025-10-01 14h25.45.506259 +0530,
150,v,129,1,32,v,1,0.2598558329627849,None,32,1,129,1,,,,,299.23813270800747,,299.23447045800276,299.23813270800747,300.2216856669984,300.2216856669984,300.2216856669984,300.2216856669984,300.23304329201346,301.2224617499742,301.2224617499742,301.485128625005,v,1,0.2598558329627849,None,,,,,5,001,2025-10-01_14h25.33.829, Motor Sequence Learning,,2025.1.1,None,2025-10-01 14h25.45.506259 +0530,
50,c,130,2,32,c,1,0.21231562399771065,None,32,2,130,2,,,,,301.4951294999919,,301.4858442079858,301.4951294999919,302.4831593330018,302.4831593330018,302.4831593330018,302.4831593330018,302.4879419580102,303.4830088749877,303.4830088749877,303.7015111250221,c,1,0.21231562399771065,None,,,,,5,001,2025-10-01_14h25.33.829, Motor Sequence Learning,,2025.1.1,None,2025-10-01 14h25.45.506259 +0530,
-150,z,131,3,32,z,1,0.2526247079949826,None,32,3,131,3,,,,,303.7114390829811,,303.7022200829815,303.7114390829811,304.69976275000954,304.69976275000954,304.69976275000954,304.69976275000954,304.7047516250168,305.6996291250107,305.6996291250107,305.9563120829989,z,1,0.2526247079949826,None,,,,,5,001,2025-10-01_14h25.33.829, Motor Sequence Learning,,2025.1.1,None,2025-10-01 14h25.45.506259 +0530,
-50,x,132,0,33,x,1,0.2787956240354106,None,33,0,132,0,,,,,305.96542287501507,,305.9568462499883,305.96542287501507,306.95615179202287,306.95615179202287,306.95615179202287,306.95615179202287,306.95615179202287,307.9553584170062,307.9553584170062,308.2394531670143,x,1,0.2787956240354106,None,,,,,5,001,2025-10-01_14h25.33.829, Motor Sequence Learning,,2025.1.1,None,2025-10-01 14h25.45.506259 +0530,
150,v,133,1,33,v,1,0.25130291597452015,None,33,1,133,1,,,,,308.2488589169807,,308.23996987502323,308.2488589169807,309.23834079201333,309.23834079201333,309.23834079201333,309.23834079201333,309.23834079201333,310.23885529197287,310.23885529197287,310.50168508297065,v,1,0.25130291597452015,None,,,,,5,001,2025-10-01_14h25.33.829, Motor Sequence Learning,,2025.1.1,None,2025-10-01 14h25.45.506259 +0530,
50,c,134,2,33,c,1,0.2093682910199277,None,33,2,134,2,,,,,310.51124700001674,,310.50257229199633,310.51124700001674,311.4996213329723,311.4996213329723,311.4996213329723,311.4996213329723,311.50429845799226,312.4996299580089,312.4996299580089,312.71802170801675,c,1,0.2093682910199277,None,,,,,5,001,2025-10-01_14h25.33.829, Motor Sequence Learning,,2025.1.1,None,2025-10-01 14h25.45.506259 +0530,
-150,z,135,3,33,z,1,0.26176266599213704,None,33,3,135,3,,,,,312.72785791702336,,312.7187214579899,312.72785791702336,313.7163956669974,313.7163956669974,313.7163956669974,313.7163956669974,313.7212041669991,314.7162963330047,314.7162963330047,314.98469000001205,z,1,0.26176266599213704,None,,,,,5,001,2025-10-01_14h25.33.829, Motor Sequence Learning,,2025.1.1,None,2025-10-01 14h25.45.506259 +0530,
-50,x,136,0,34,x,1,0.2639544159756042,None,34,0,136,0,,,,,314.99342266697204,,314.98526704200776,314.99342266697204,315.98307112499606,315.98307112499606,315.98307112499606,315.98307112499606,315.98831545800203,316.98301979200915,316.98301979200915,317.2514005830162,x,1,0.2639544159756042,None,,,,,5,001,2025-10-01_14h25.33.829, Motor Sequence Learning,,2025.1.1,None,2025-10-01 14h25.45.506259 +0530,
150,v,137,1,34,v,1,0.27039858303032815,None,34,1,137,1,,,,,317.2603206670028,,317.2519514579908,317.2603206670028,318.2495714999968,318.2495714999968,318.2495714999968,318.2495714999968,318.25392670801375,319.24956112500513,319.24956112500513,319.5225892079761,v,1,0.27039858303032815,None,,,,,5,001,2025-10-01_14h25.33.829, Motor Sequence Learning,,2025.1.1,None,2025-10-01 14h25.45.506259 +0530,
50,c,138,2,34,c,1,0.28255287499632686,None,34,2,138,2,,,,,319.53209370799595,,319.5231063750107,319.53209370799595,320.5216972079943,320.5216972079943,320.5216972079943,320.5216972079943,320.5216972079943,321.52132733300095,321.52132733300095,321.80613287497545,c,1,0.28255287499632686,None,,,,,5,001,2025-10-01_14h25.33.829, Motor Sequence Learning,,2025.1.1,None,2025-10-01 14h25.45.506259 +0530,
-150,z,139,3,34,z,1,0.3022555419593118,None,34,3,139,3,,,,,321.8155556250131,,321.8066526670009,321.8155556250131,322.8049552079756,322.8049552079756,322.8049552079756,322.8049552079756,322.8049552079756,323.80553120799595,323.80553120799595,324.11804258299526,z,1,0.3022555419593118,None,,,,,5,001,2025-10-01_14h25.33.829, Motor Sequence Learning,,2025.1.1,None,2025-10-01 14h25.45.506259 +0530,
-50,x,140,0,35,x,1,0.2133524990058504,None,35,0,140,0,,,,,324.1269526249962,,324.11858641699655,324.1269526249962,325.11624725,325.11624725,325.11624725,325.11624725,325.1212514580111,326.1163687920198,326.1163687920198,326.33496900001774,x,1,0.2133524990058504,None,,,,,5,001,2025-10-01_14h25.33.829, Motor Sequence Learning,,2025.1.1,None,2025-10-01 14h25.45.506259 +0530,
150,v,141,1,35,v,1,0.35564004199113697,None,35,1,141,1,,,,,326.34431483299704,,326.33565775002353,326.34431483299704,327.3331427919911,327.3331427919911,327.3331427919911,327.3331427919911,327.3376761249965,328.3330025000032,328.3330025000032,328.7013781669666,v,1,0.35564004199113697,None,,,,,5,001,2025-10-01_14h25.33.829, Motor Sequence Learning,,2025.1.1,None,2025-10-01 14h25.45.506259 +0530,
50,c,142,2,35,c,1,0.2679346249788068,None,35,2,142,2,,,,,328.71021087496774,,328.70188804197824,328.71021087496774,329.69974337500753,329.69974337500753,329.69974337500753,329.69974337500753,329.7053666249849,330.6995940830093,330.6995940830093,330.972377625003,c,1,0.2679346249788068,None,,,,,5,001,2025-10-01_14h25.33.829, Motor Sequence Learning,,2025.1.1,None,2025-10-01 14h25.45.506259 +0530,
-150,z,143,3,35,z,1,2.2218092079856433,None,35,3,143,3,,,,,330.98215112497564,,330.97289395798,330.98215112497564,331.9713002499775,331.9713002499775,331.9713002499775,331.9713002499775,331.9713002499775,332.9714629999944,332.9714629999944,332.97204229200725,z,1,2.2218092079856433,None,,,,,5,001,2025-10-01_14h25.33.829, Motor Sequence Learning,,2025.1.1,None,2025-10-01 14h25.45.506259 +0530,
-50,x,144,0,36,x,1,0.37106504099210724,None,36,0,144,0,,,,,332.98286891699536,,332.9724366249866,332.98286891699536,333.9724531249958,333.9724531249958,333.9724531249958,333.9724531249958,333.9724531249958,334.97255950002,334.97255950002,335.35154354199767,x,1,0.37106504099210724,None,,,,,5,001,2025-10-01_14h25.33.829, Motor Sequence Learning,,2025.1.1,None,2025-10-01 14h25.45.506259 +0530,
150,v,145,1,36,v,1,0.10108741599833593,None,36,1,145,1,,,,,335.36175774998264,,335.3523485829937,335.36175774998264,336.3495519999997,336.3495519999997,336.3495519999997,336.3495519999997,336.35409329197137,337.3496408329811,337.3496408329811,337.456011458009,v,1,0.10108741599833593,None,,,,,5,001,2025-10-01_14h25.33.829, Motor Sequence Learning,,2025.1.1,None,2025-10-01 14h25.45.506259 +0530,
50,c,146,2,36,c,1,0.09482566599035636,None,36,2,146,2,,,,,337.465503000014,,337.4565291670151,337.465503000014,338.4555637500016,338.4555637500016,338.4555637500016,338.4555637500016,338.4555637500016,339.45564633299364,339.45564633299364,339.5560370829771,c,1,0.09482566599035636,None,,,,,5,001,2025-10-01_14h25.33.829, Motor Sequence Learning,,2025.1.1,None,2025-10-01 14h25.45.506259 +0530,
-150,z,147,3,36,z,1,0.6922845829976723,None,36,3,147,3,,,,,339.58325683302246,,339.556606750004,339.58325683302246,340.55518245801795,340.55518245801795,340.55518245801795,340.55518245801795,340.57021712500136,341.5551010830095,341.5551010830095,342.2515584169887,z,1,0.6922845829976723,None,,,,,5,001,2025-10-01_14h25.33.829, Motor Sequence Learning,,2025.1.1,None,2025-10-01 14h25.45.506259 +0530,
-50,x,148,0,37,x,1,0.2997752910014242,None,37,0,148,0,,,,,342.2607250830042,,342.25214187498204,342.2607250830042,343.24967733299127,343.24967733299127,343.24967733299127,343.24967733299127,343.25465970800724,344.24957304197596,344.24957304197596,344.5513972499757,x,1,0.2997752910014242,None,,,,,5,001,2025-10-01_14h25.33.829, Motor Sequence Learning,,2025.1.1,None,2025-10-01 14h25.45.506259 +0530,
150,v,149,1,37,v,1,0.3475872079725377,None,37,1,149,1,,,,,344.560612457979,,344.5519551250036,344.560612457979,345.54952524998225,345.54952524998225,345.54952524998225,345.54952524998225,345.55413308297284,346.54974966699956,346.54974966699956,346.90125900000567,v,1,0.3475872079725377,None,,,,,5,001,2025-10-01_14h25.33.829, Motor Sequence Learning,,2025.1.1,None,2025-10-01 14h25.45.506259 +0530,
50,c,150,2,37,c,1,0.2977871249895543,None,37,2,150,2,,,,,346.9106089579873,,346.9018067920115,346.9106089579873,347.89960545802023,347.89960545802023,347.89960545802023,347.89960545802023,347.9043488749885,348.8994862079853,348.8994862079853,349.2012480829726,c,1,0.2977871249895543,None,,,,,5,001,2025-10-01_14h25.33.829, Motor Sequence Learning,,2025.1.1,None,2025-10-01 14h25.45.506259 +0530,
-150,z,151,3,37,z,1,0.5144011239754036,None,37,3,151,3,,,,,349.2104548329953,,349.2018260419718,349.2104548329953,350.1994335830095,350.1994335830095,350.1994335830095,350.1994335830095,350.2040007080068,351.19974833301967,351.19974833301967,351.71794162498554,z,1,0.5144011239754036,None,,,,,5,001,2025-10-01_14h25.33.829, Motor Sequence Learning,,2025.1.1,None,2025-10-01 14h25.45.506259 +0530,
-50,x,152,0,38,x,1,0.2661392909940332,None,38,0,152,0,,,,,351.7271831249818,,351.71849275002023,351.7271831249818,352.7162537080003,352.7162537080003,352.7162537080003,352.7162537080003,352.7214634579723,353.71606587502174,353.71606587502174,353.9846510000061,x,1,0.2661392909940332,None,,,,,5,001,2025-10-01_14h25.33.829, Motor Sequence Learning,,2025.1.1,None,2025-10-01 14h25.45.506259 +0530,
150,v,153,1,38,v,1,1.2804327079793438,None,38,1,153,1,,,,,353.99393858300755,,353.985193874978,353.99393858300755,354.98290645796806,354.98290645796806,354.98290645796806,354.98290645796806,354.987868917,355.98275237501366,355.98275237501366,357.2684330000193,v,1,1.2804327079793438,None,,,,,5,001,2025-10-01_14h25.33.829, Motor Sequence Learning,,2025.1.1,None,2025-10-01 14h25.45.506259 +0530,
50,c,154,2,38,c,1,0.7258401660365053,None,38,2,154,2,,,,,357.2780642079888,,357.2691208330216,357.2780642079888,358.26624108297983,358.26624108297983,358.26624108297983,358.26624108297983,358.2709082919755,359.2662334999768,359.2662334999768,360.00138783297734,c,1,0.7258401660365053,None,,,,,5,001,2025-10-01_14h25.33.829, Motor Sequence Learning,,2025.1.1,None,2025-10-01 14h25.45.506259 +0530,
-150,z,155,3,38,z,1,0.4164352919906378,None,38,3,155,3,,,,,360.0104902079911,,360.0019410420209,360.0104902079911,360.9995085829869,360.9995085829869,360.9995085829869,360.9995085829869,361.00410183297936,361.9995114170015,361.9995114170015,362.4183414580184,z,1,0.4164352919906378,None,,,,,5,001,2025-10-01_14h25.33.829, Motor Sequence Learning,,2025.1.1,None,2025-10-01 14h25.45.506259 +0530,
-50,x,156,0,39,x,1,0.2547284580068663,None,39,0,156,0,,,,,362.4277950419928,,362.4190676250146,362.4277950419928,363.4161430830136,363.4161430830136,363.4161430830136,363.4161430830136,363.4206698749913,364.41619566699956,364.41619566699956,364.6850708749844,x,1,0.2547284580068663,None,,,,,5,001,2025-10-01_14h25.33.829, Motor Sequence Learning,,2025.1.1,None,2025-10-01 14h25.45.506259 +0530,
150,v,157,1,39,v,1,0.2680382910184562,None,39,1,157,1,,,,,364.69418679201044,,364.6856322499807,364.69418679201044,365.6827738750144,365.6827738750144,365.6827738750144,365.6827738750144,365.68734508298803,366.6828866249998,366.6828866249998,366.95536429202184,v,1,0.2680382910184562,None,,,,,5,001,2025-10-01_14h25.33.829, Motor Sequence Learning,,2025.1.1,None,2025-10-01 14h25.45.506259 +0530,
50,c,158,2,39,c,1,0.2694976659840904,None,39,2,158,2,,,,,366.96535662497627,,366.95586087502306,366.96535662497627,367.9549257499748,367.9549257499748,367.9549257499748,367.9549257499748,367.9549257499748,368.94932920800056,368.94932920800056,369.223009874986,c,1,0.2694976659840904,None,,,,,5,001,2025-10-01_14h25.33.829, Motor Sequence Learning,,2025.1.1,None,2025-10-01 14h25.45.506259 +0530,
-150,z,159,3,39,z,1,0.4136912920512259,None,39,3,159,3,,,,,369.23212845798116,,369.2235297919833,369.23212845798116,370.2220552919898,370.2220552919898,370.2220552919898,370.2220552919898,370.2220552919898,371.22217216697754,371.22217216697754,371.63990233297227,z,1,0.4136912920512259,None,,,,,5,001,2025-10-01_14h25.33.829, Motor Sequence Learning,,2025.1.1,None,2025-10-01 14h25.45.506259 +0530,
-50,x,160,0,40,x,1,0.3772049159742892,None,40,0,160,0,,,,,371.6487953750184,,371.6404300419963,371.6487953750184,372.6387323329691,372.6387323329691,372.6387323329691,372.6387323329691,372.6387323329691,373.63856966700405,373.63856966700405,374.01792750001187,x,1,0.3772049159742892,None,,,,,5,001,2025-10-01_14h25.33.829, Motor Sequence Learning,,2025.1.1,None,2025-10-01 14h25.45.506259 +0530,
150,v,161,1,40,v,1,0.2186272499966435,None,40,1,161,1,,,,,374.02675837499555,,374.01850908302004,374.02675837499555,375.0162048750208,375.0162048750208,375.0162048750208,375.0162048750208,375.02139937499305,376.0160916669993,376.0160916669993,376.24037404201226,v,1,0.2186272499966435,None,,,,,5,001,2025-10-01_14h25.33.829, Motor Sequence Learning,,2025.1.1,None,2025-10-01 14h25.45.506259 +0530,
50,c,162,2,40,c,1,0.2403509989962913,None,40,2,162,2,,,,,376.24883316701744,,376.24097358301515,376.24883316701744,377.2380346250138,377.2380346250138,377.2380346250138,377.2380346250138,377.2380346250138,378.23839216696797,378.23839216696797,378.48454824998043,c,1,0.2403509989962913,None,,,,,5,001,2025-10-01_14h25.33.829, Motor Sequence Learning,,2025.1.1,None,2025-10-01 14h25.45.506259 +0530,
-150,z,163,3,40,z,1,0.24491774901980534,None,40,3,163,3,,,,,378.4934025420225,,378.48521675000666,378.4934025420225,379.48292062501423,379.48292062501423,379.48292062501423,379.48292062501423,379.48829662497155,380.48272670799633,380.48272670799633,380.7345941250096,z,1,0.24491774901980534,None,,,,,5,001,2025-10-01_14h25.33.829, Motor Sequence Learning,,2025.1.1,None,2025-10-01 14h25.45.506259 +0530,
-50,x,164,0,41,x,1,0.24679658300010487,None,41,0,164,0,,,,,380.7432837500237,,380.7351459169877,380.7432837500237,381.73283774999436,381.73283774999436,381.73283774999436,381.73283774999436,381.7379477079958,382.73285058297915,382.73285058297915,382.98513649997767,x,1,0.24679658300010487,None,,,,,5,001,2025-10-01_14h25.33.829, Motor Sequence Learning,,2025.1.1,None,2025-10-01 14h25.45.506259 +0530,
150,v,165,1,41,v,1,0.2856759160058573,None,41,1,165,1,,,,,382.9940642499714,,382.98586487502325,382.9940642499714,383.9828170830151,383.9828170830151,383.9828170830151,383.9828170830151,383.9880340829841,384.9827162500005,384.9827162500005,385.2721245000139,v,1,0.2856759160058573,None,,,,,5,001,2025-10-01_14h25.33.829, Motor Sequence Learning,,2025.1.1,None,2025-10-01 14h25.45.506259 +0530,
50,c,166,2,41,c,1,0.24917012499645352,None,41,2,166,2,,,,,385.28197470802115,,385.27264866698533,385.28197470802115,386.27134812501026,386.27134812501026,386.27134812501026,386.27134812501026,386.27134812501026,387.2712480829796,387.2712480829796,387.5219230420189,c,1,0.24917012499645352,None,,,,,5,001,2025-10-01_14h25.33.829, Motor Sequence Learning,,2025.1.1,None,2025-10-01 14h25.45.506259 +0530,
-150,z,167,3,41,z,1,0.21030466596130282,None,41,3,167,3,,,,,387.5321727080154,,387.5224319580011,387.5321727080154,388.5220402919804,388.5220402919804,388.5220402919804,388.5220402919804,388.5220402919804,389.5160777079873,389.5160777079873,389.7343228330137,z,1,0.21030466596130282,None,,,,,5,001,2025-10-01_14h25.33.829, Motor Sequence Learning,,2025.1.1,None,2025-10-01 14h25.45.506259 +0530,
-50,x,168,0,42,x,1,0.48469554097391665,None,42,0,168,0,,,,,389.74058545799926,,389.7348382920027,389.74058545799926,390.73281283298275,390.73281283298275,390.73281283298275,390.73281283298275,390.7380137919681,391.7326289580087,391.7326289580087,392.22299004200613,x,1,0.48469554097391665,None,,,,,5,001,2025-10-01_14h25.33.829, Motor Sequence Learning,,2025.1.1,None,2025-10-01 14h25.45.506259 +0530,
150,v,169,1,42,v,1,0.35582500003511086,None,42,1,169,1,,,,,392.2319841249846,,392.2234898749739,392.2319841249846,393.2227342919796,393.2227342919796,393.2227342919796,393.2227342919796,393.2227342919796,394.2214670419926,394.2214670419926,394.5845589169767,v,1,0.35582500003511086,None,,,,,5,001,2025-10-01_14h25.33.829, Motor Sequence Learning,,2025.1.1,None,2025-10-01 14h25.45.506259 +0530,
50,c,170,2,42,c,1,0.2804856249713339,None,42,2,170,2,,,,,394.59301541699097,,394.5851701669744,394.59301541699097,395.58296249998966,395.58296249998966,395.58296249998966,395.58296249998966,395.5887651250232,396.5828298329725,396.5828298329725,396.8678763330099,c,1,0.2804856249713339,None,,,,,5,001,2025-10-01_14h25.33.829, Motor Sequence Learning,,2025.1.1,None,2025-10-01 14h25.45.506259 +0530,
-150,z,171,3,42,z,1,0.21105154196266085,None,42,3,171,3,,,,,396.8760800830205,,396.8684025830007,396.8760800830205,397.86618108302355,397.86618108302355,397.86618108302355,397.86618108302355,397.8711642919807,398.8661715000053,398.8661715000053,399.08521179197123,z,1,0.21105154196266085,None,,,,,5,001,2025-10-01_14h25.33.829, Motor Sequence Learning,,2025.1.1,None,2025-10-01 14h25.45.506259 +0530,
-50,x,172,0,43,x,1,0.2616191239794716,None,43,0,172,0,,,,,399.0942858749768,,399.08577683300246,399.0942858749768,400.08281687501585,400.08281687501585,400.08281687501585,400.08281687501585,400.0880146250129,401.0827120830072,401.0827120830072,401.3513909999747,x,1,0.2616191239794716,None,,,,,5,001,2025-10-01_14h25.33.829, Motor Sequence Learning,,2025.1.1,None,2025-10-01 14h25.45.506259 +0530,
150,v,173,1,43,v,1,0.26173079101135954,None,43,1,173,1,,,,,401.3603310000035,,401.35211466701,401.3603310000035,402.3493254579953,402.3493254579953,402.3493254579953,402.3493254579953,402.3536754579982,403.3494376249728,403.3494376249728,403.6183550829883,v,1,0.26173079101135954,None,,,,,5,001,2025-10-01_14h25.33.829, Motor Sequence Learning,,2025.1.1,None,2025-10-01 14h25.45.506259 +0530,
50,c,174,2,43,c,1,0.2740185000002384,None,43,2,174,2,,,,,403.6276722080074,,403.6192022499745,403.6276722080074,404.61602708301507,404.61602708301507,404.61602708301507,404.61602708301507,404.62137324997457,405.61604991700733,405.61604991700733,405.9014337079716,c,1,0.2740185000002384,None,,,,,5,001,2025-10-01_14h25.33.829, Motor Sequence Learning,,2025.1.1,None,2025-10-01 14h25.45.506259 +0530,
-150,z,175,3,43,z,1,0.28252016700571403,None,43,3,175,3,,,,,405.9102774580242,,405.9019628749811,405.9102774580242,406.8994045419968,406.8994045419968,406.8994045419968,406.8994045419968,406.90444179199403,407.8993833750137,407.8993833750137,408.1848602499813,z,1,0.28252016700571403,None,,,,,5,001,2025-10-01_14h25.33.829, Motor Sequence Learning,,2025.1.1,None,2025-10-01 14h25.45.506259 +0530,
-50,x,176,0,44,x,1,0.27036558295367286,None,44,0,176,0,,,,,408.1942493329989,,408.18553858296946,408.1942493329989,409.1828147919732,409.1828147919732,409.1828147919732,409.1828147919732,409.1882211249904,410.18262220796896,410.18262220796896,410.4566092499881,x,1,0.27036558295367286,None,,,,,5,001,2025-10-01_14h25.33.829, Motor Sequence Learning,,2025.1.1,None,2025-10-01 14h25.45.506259 +0530,
150,v,177,1,44,v,1,0.2579644579673186,None,44,1,177,1,,,,,410.4655545830028,,410.4571420419961,410.4655545830028,411.45461395801976,411.45461395801976,411.45461395801976,411.45461395801976,411.45461395801976,412.4550445000059,412.4550445000059,412.71820208302233,v,1,0.2579644579673186,None,,,,,5,001,2025-10-01_14h25.33.829, Motor Sequence Learning,,2025.1.1,None,2025-10-01 14h25.45.506259 +0530,
50,c,178,2,44,c,1,0.2699413330410607,None,44,2,178,2,,,,,412.7273682919913,,412.7188864169875,412.7273682919913,413.71613149996847,413.71613149996847,413.71613149996847,413.71613149996847,413.7213786250213,414.7160270420136,414.7160270420136,414.9892297919723,c,1,0.2699413330410607,None,,,,,5,001,2025-10-01_14h25.33.829, Motor Sequence Learning,,2025.1.1,None,2025-10-01 14h25.45.506259 +0530,
-150,z,179,3,44,z,1,0.25043699896195903,None,44,3,179,3,,,,,414.99863275000826,,414.9897344579804,414.99863275000826,415.98876383301103,415.98876383301103,415.98876383301103,415.98876383301103,415.98876383301103,416.9884092080174,416.9884092080174,417.25177095801337,z,1,0.25043699896195903,None,,,,,5,001,2025-10-01_14h25.33.829, Motor Sequence Learning,,2025.1.1,None,2025-10-01 14h25.45.506259 +0530,
-50,x,180,0,45,x,1,0.2634625000064261,None,45,0,180,0,,,,,417.2607144169742,,417.25236699997913,417.2607144169742,418.2494115419686,418.2494115419686,418.2494115419686,418.2494115419686,418.25427954201587,419.24938608298544,419.24938608298544,419.5178874579724,x,1,0.2634625000064261,None,,,,,5,001,2025-10-01_14h25.33.829, Motor Sequence Learning,,2025.1.1,None,2025-10-01 14h25.45.506259 +0530,
150,v,181,1,45,v,1,0.23971541598439217,None,45,1,181,1,,,,,419.5270028329687,,419.51854712498607,419.5270028329687,420.5161013749894,420.5161013749894,420.5161013749894,420.5161013749894,420.52105016697897,421.5160392919788,421.5160392919788,421.76790770801017,v,1,0.23971541598439217,None,,,,,5,001,2025-10-01_14h25.33.829, Motor Sequence Learning,,2025.1.1,None,2025-10-01 14h25.45.506259 +0530,
50,c,182,2,45,c,1,0.22155687503982335,None,45,2,182,2,,,,,421.7772675419692,,421.76857054198626,421.7772675419692,422.7659978750162,422.7659978750162,422.7659978750162,422.7659978750162,422.771455042006,423.76607862499077,423.76607862499077,423.99000929197064,c,1,0.22155687503982335,None,,,,,5,001,2025-10-01_14h25.33.829, Motor Sequence Learning,,2025.1.1,None,2025-10-01 14h25.45.506259 +0530,
-150,z,183,3,45,z,1,0.3065546659636311,None,45,3,183,3,,,,,423.9987459999975,,423.9905310830218,423.9987459999975,424.98874933301704,424.98874933301704,424.98874933301704,424.98874933301704,424.98874933301704,425.98818004201166,425.98818004201166,426.3016116669751,z,1,0.3065546659636311,None,,,,,5,001,2025-10-01_14h25.33.829, Motor Sequence Learning,,2025.1.1,None,2025-10-01 14h25.45.506259 +0530,
-50,x,184,0,46,x,1,0.26413495803717524,None,46,0,184,0,,,,,426.3106053749798,,426.302126207971,426.3106053749798,427.2994411669788,427.2994411669788,427.2994411669788,427.2994411669788,427.305062541971,428.2994343750179,428.2994343750179,428.56780720799,x,1,0.26413495803717524,None,,,,,5,001,2025-10-01_14h25.33.829, Motor Sequence Learning,,2025.1.1,None,2025-10-01 14h25.45.506259 +0530,
150,v,185,1,46,v,1,0.25134262500796467,None,46,1,185,1,,,,,428.5766765829758,,428.5683538329904,428.5766765829758,429.5660782919731,429.5660782919731,429.5660782919731,429.5660782919731,429.571303292003,430.5661610829993,430.5661610829993,430.82260666700313,v,1,0.25134262500796467,None,,,,,5,001,2025-10-01_14h25.33.829, Motor Sequence Learning,,2025.1.1,None,2025-10-01 14h25.45.506259 +0530,
50,c,186,2,46,c,1,0.2511999579728581,None,46,2,186,2,,,,,430.8319939170033,,430.8231321669882,430.8319939170033,431.82136370800436,431.82136370800436,431.82136370800436,431.82136370800436,431.82136370800436,432.82215945801,432.82215945801,433.08443066698965,c,1,0.2511999579728581,None,,,,,5,001,2025-10-01_14h25.33.829, Motor Sequence Learning,,2025.1.1,None,2025-10-01 14h25.45.506259 +0530,
-150,z,187,3,46,z,1,0.27987183298682794,None,46,3,187,3,,,,,433.0935746249743,,433.08510424999986,433.0935746249743,434.0828173329937,434.0828173329937,434.0828173329937,434.0828173329937,434.0880035830196,435.0826738749747,435.0826738749747,435.3678098329692,z,1,0.27987183298682794,None,,,,,5,001,2025-10-01_14h25.33.829, Motor Sequence Learning,,2025.1.1,None,2025-10-01 14h25.45.506259 +0530,
-50,x,188,0,47,x,1,0.41944666602648795,None,47,0,188,0,,,,,435.3768865420134,,435.36832954199053,435.3768865420134,436.3661282079993,436.3661282079993,436.3661282079993,436.3661282079993,436.3717150830198,437.3659299580031,437.3659299580031,437.7892388749751,x,1,0.41944666602648795,None,,,,,5,001,2025-10-01_14h25.33.829, Motor Sequence Learning,,2025.1.1,None,2025-10-01 14h25.45.506259 +0530,
150,v,189,1,47,v,1,0.1303965410334058,None,47,1,189,1,,,,,437.7986204579938,,437.7897665419732,437.7986204579938,438.7886545420042,438.7886545420042,438.7886545420042,438.7886545420042,438.7886545420042,439.78783508297056,439.78783508297056,439.9229270829819,v,1,0.1303965410334058,None,,,,,5,001,2025-10-01_14h25.33.829, Motor Sequence Learning,,2025.1.1,None,2025-10-01 14h25.45.506259 +0530,
50,c,190,2,47,c,1,0.26442779100034386,None,47,2,190,2,,,,,439.9319540829747,,439.9234370830236,439.9319540829747,440.92109104199335,440.92109104199335,440.92109104199335,440.92109104199335,440.92109104199335,441.92186904198024,441.92186904198024,442.18871249997756,c,1,0.26442779100034386,None,,,,,5,001,2025-10-01_14h25.33.829, Motor Sequence Learning,,2025.1.1,None,2025-10-01 14h25.45.506259 +0530,
-150,z,191,3,47,z,1,0.19839283300098032,None,47,3,191,3,,,,,442.1986724580056,,442.1892611249932,442.1986724580056,443.1880258329911,443.1880258329911,443.1880258329911,443.1880258329911,443.1880258329911,444.1881507919752,444.1881507919752,444.3899833749747,z,1,0.19839283300098032,None,,,,,5,001,2025-10-01_14h25.33.829, Motor Sequence Learning,,2025.1.1,None,2025-10-01 14h25.45.506259 +0530,
-50,x,192,0,48,x,1,0.16285874997265637,None,48,0,192,0,,,,,444.39879195799585,,444.3905356670148,444.39879195799585,445.3889109999873,445.3889109999873,445.3889109999873,445.3889109999873,445.3889109999873,446.3883118329686,446.3883118329686,446.5553804580122,x,1,0.16285874997265637,None,,,,,5,001,2025-10-01_14h25.33.829, Motor Sequence Learning,,2025.1.1,None,2025-10-01 14h25.45.506259 +0530,
150,v,193,1,48,v,1,0.36178395798197016,None,48,1,193,1,,,,,446.5651769170072,,446.5559126249864,446.5651769170072,447.5543538330239,447.5543538330239,447.5543538330239,447.5543538330239,447.5543538330239,448.5553251670208,448.5553251670208,448.92231749999337,v,1,0.36178395798197016,None,,,,,5,001,2025-10-01_14h25.33.829, Motor Sequence Learning,,2025.1.1,None,2025-10-01 14h25.45.506259 +0530,
50,c,194,2,48,c,1,0.3151393749867566,None,48,2,194,2,,,,,448.9318171250052,,448.92285658296896,448.9318171250052,449.9211243329919,449.9211243329919,449.9211243329919,449.9211243329919,449.9211243329919,450.92102766700555,450.92102766700555,451.2395939580165,c,1,0.3151393749867566,None,,,,,5,001,2025-10-01_14h25.33.829, Motor Sequence Learning,,2025.1.1,None,2025-10-01 14h25.45.506259 +0530,
-150,z,195,3,48,z,1,0.26913004100788385,None,48,3,195,3,,,,,451.24855224997737,,451.24011870799586,451.24855224997737,452.23762904200703,452.23762904200703,452.23762904200703,452.23762904200703,452.23762904200703,453.2388699579751,453.2388699579751,453.51800099998945,z,1,0.26913004100788385,None,,,,,5,001,2025-10-01_14h25.33.829, Motor Sequence Learning,,2025.1.1,None,2025-10-01 14h25.45.506259 +0530,
-50,x,196,0,49,x,1,2.245060082990676,None,49,0,196,0,,,,,453.52671000000555,,453.518538083008,453.52671000000555,454.51595787500264,454.51595787500264,454.51595787500264,454.51595787500264,454.52021966699976,455.51596108300146,455.51596108300146,455.51672987500206,x,1,2.245060082990676,None,,,,,5,001,2025-10-01_14h25.33.829, Motor Sequence Learning,,2025.1.1,None,2025-10-01 14h25.45.506259 +0530,
150,v,197,1,49,v,1,0.5524023750331253,None,49,1,197,1,,,,,455.5209499169723,,455.517326125002,455.5209499169723,456.50497791700764,456.50497791700764,456.50497791700764,456.50497791700764,456.5160281250137,457.5055215830216,457.5055215830216,458.0678969169967,v,1,0.5524023750331253,None,,,,,5,001,2025-10-01_14h25.33.829, Motor Sequence Learning,,2025.1.1,None,2025-10-01 14h25.45.506259 +0530,
50,c,198,2,49,c,1,0.054838541022036225,None,49,2,198,2,,,,,458.076685292006,,458.06845508300466,458.076685292006,459.06592445797287,459.06592445797287,459.06592445797287,459.06592445797287,459.0708730419865,460.06603829201777,460.06603829201777,460.1223568749847,c,1,0.054838541022036225,None,,,,,5,001,2025-10-01_14h25.33.829, Motor Sequence Learning,,2025.1.1,None,2025-10-01 14h25.45.506259 +0530,
-150,z,199,3,49,z,1,0.21705695800483227,None,49,3,199,3,,,,,460.1318117919727,,460.12290091702016,460.1318117919727,461.12232170801144,461.12232170801144,461.12232170801144,461.12232170801144,461.12232170801144,462.1217315829708,462.1217315829708,462.3513887919835,z,1,0.21705695800483227,None,,,,,5,001,2025-10-01_14h25.33.829, Motor Sequence Learning,,2025.1.1,None,2025-10-01 14h25.45.506259 +0530,
50,c,0,0,0,c,1,0.6796329580247402,None,,,,,0,0,0,2,462.37197808298515,,462.3657507500029,462.37197808298515,463.34921625000425,463.34921625000425,463.34921625000425,463.34921625000425,463.3660087080207,464.34926925000036,464.34926925000036,465.0344735420076,,,,,c,1,0.6796329580247402,None,5,001,2025-10-01_14h25.33.829, Motor Sequence Learning,,2025.1.1,None,2025-10-01 14h25.45.506259 +0530,
50,c,1,1,1,c,1,0.3598595410003327,None,,,,,1,1,1,2,465.042854624975,,465.03503854200244,465.042854624975,466.0325918329763,466.0325918329763,466.0325918329763,466.0325918329763,466.03733658301644,467.0329199170228,467.0329199170228,467.4010233330191,,,,,c,1,0.3598595410003327,None,5,001,2025-10-01_14h25.33.829, Motor Sequence Learning,,2025.1.1,None,2025-10-01 14h25.45.506259 +0530,
-50,x,2,2,0,x,1,0.38437683298252523,None,,,,,0,2,2,0,467.4096292500035,,467.4015788749675,467.4096292500035,468.39908508298686,468.39908508298686,468.39908508298686,468.39908508298686,468.40403575001983,469.3992508329684,469.3992508329684,469.7901391669875,,,,,x,1,0.38437683298252523,None,5,001,2025-10-01_14h25.33.829, Motor Sequence Learning,,2025.1.1,None,2025-10-01 14h25.45.506259 +0530,
150,v,3,3,0,v,1,0.45256766595412046,None,,,,,0,3,3,1,469.7986254169955,,469.7906802080106,469.7986254169955,470.7879686669912,470.7879686669912,470.7879686669912,470.7879686669912,470.7879686669912,471.7880902920151,471.7880902920151,472.25121537497034,,,,,v,1,0.45256766595412046,None,5,001,2025-10-01_14h25.33.829, Motor Sequence Learning,,2025.1.1,None,2025-10-01 14h25.45.506259 +0530,
150,v,4,4,1,v,1,0.367328998981975,None,,,,,1,4,4,1,472.25975058297627,,472.2518764170236,472.25975058297627,473.24926441698335,473.24926441698335,473.24926441698335,473.24926441698335,473.2546572079882,474.2493095420068,474.2493095420068,474.6224990829942,,,,,v,1,0.367328998981975,None,5,001,2025-10-01_14h25.33.829, Motor Sequence Learning,,2025.1.1,None,2025-10-01 14h25.45.506259 +0530,
150,v,5,5,2,v,1,0.6183797909761779,None,,,,,2,5,5,1,474.6317768750014,,474.62302458297927,474.6317768750014,475.6214507080149,475.6214507080149,475.6214507080149,475.6214507080149,475.6214507080149,476.6211278749979,476.6211278749979,477.2512257079943,,,,,v,1,0.6183797909761779,None,5,001,2025-10-01_14h25.33.829, Motor Sequence Learning,,2025.1.1,None,2025-10-01 14h25.45.506259 +0530,
50,c,6,6,2,c,1,0.4210889159585349,None,,,,,2,6,6,2,477.2598395830137,,477.25174591701943,477.2598395830137,478.24928933300544,478.24928933300544,478.24928933300544,478.24928933300544,478.25567662500544,479.24921920802444,479.24921920802444,479.67294716701144,,,,,c,1,0.4210889159585349,None,5,001,2025-10-01_14h25.33.829, Motor Sequence Learning,,2025.1.1,None,2025-10-01 14h25.45.506259 +0530,
-150,z,7,7,0,z,1,0.4108744580298662,None,,,,,0,7,7,3,479.68179191701347,,479.67351295799017,479.68179191701347,480.67091450002044,480.67091450002044,480.67091450002044,480.67091450002044,480.67091450002044,481.671496749972,481.671496749972,482.0844346670201,,,,,z,1,0.4108744580298662,None,5,001,2025-10-01_14h25.33.829, Motor Sequence Learning,,2025.1.1,None,2025-10-01 14h25.45.506259 +0530,
-150,z,8,8,1,z,1,0.45768412499455735,None,,,,,1,8,8,3,482.0931347499718,,482.08498691697605,482.0931347499718,483.0826196249691,483.0826196249691,483.0826196249691,483.0826196249691,483.08818145800615,484.08268487500027,484.08268487500027,484.5512017500005,,,,,z,1,0.45768412499455735,None,5,001,2025-10-01_14h25.33.829, Motor Sequence Learning,,2025.1.1,None,2025-10-01 14h25.45.506259 +0530,
-150,z,9,9,2,z,1,0.5251198739861138,None,,,,,2,9,9,3,484.5598208750016,,484.5517428329913,484.5598208750016,485.5492919170065,485.5492919170065,485.5492919170065,485.5492919170065,485.5556248750072,486.5491832079715,486.5491832079715,487.08444062498165,,,,,z,1,0.5251198739861138,None,5,001,2025-10-01_14h25.33.829, Motor Sequence Learning,,2025.1.1,None,2025-10-01 14h25.45.506259 +0530,
-50,x,10,10,1,x,1,0.49877987400395796,None,,,,,1,10,10,0,487.0931835420197,,487.0849722920102,487.0931835420197,488.08247079199646,488.08247079199646,488.08247079199646,488.08247079199646,488.0878819170175,489.0825535830227,489.0825535830227,489.5850351669942,,,,,x,1,0.49877987400395796,None,5,001,2025-10-01_14h25.33.829, Motor Sequence Learning,,2025.1.1,None,2025-10-01 14h25.45.506259 +0530,
150,v,11,11,3,v,1,0.3278062919853255,None,,,,,3,11,11,1,489.595652582997,,489.585871917021,489.595652582997,490.5825971669983,490.5825971669983,490.5825971669983,490.5825971669983,490.5880146250129,491.58249795797747,491.58249795797747,491.9177497079945,,,,,v,1,0.3278062919853255,None,5,001,2025-10-01_14h25.33.829, Motor Sequence Learning,,2025.1.1,None,2025-10-01 14h25.45.506259 +0530,
-150,z,12,12,3,z,1,0.2864070830401033,None,,,,,3,12,12,3,491.9260550829931,,491.91826970799593,491.9260550829931,492.91600608301815,492.91600608301815,492.91600608301815,492.91600608301815,492.9213874579873,493.91576566698495,493.91576566698495,494.20618808298605,,,,,z,1,0.2864070830401033,None,5,001,2025-10-01_14h25.33.829, Motor Sequence Learning,,2025.1.1,None,2025-10-01 14h25.45.506259 +0530,
150,v,13,13,4,v,1,1.5301617909572087,None,,,,,4,13,13,1,494.21514158300124,,494.2067274579895,494.21514158300124,495.20424287498463,495.20424287498463,495.20424287498463,495.20424287498463,495.20424287498463,496.20480745797977,496.20480745797977,497.7396923750057,,,,,v,1,1.5301617909572087,None,5,001,2025-10-01_14h25.33.829, Motor Sequence Learning,,2025.1.1,None,2025-10-01 14h25.45.506259 +0530,
150,v,14,14,5,v,1,0.545198748994153,None,,,,,5,14,14,1,497.76623741700314,,497.7402600420173,497.76623741700314,498.73855587496655,498.73855587496655,498.73855587496655,498.73855587496655,498.75456174998544,499.73889779200545,499.73889779200545,500.2898654169985,,,,,v,1,0.545198748994153,None,5,001,2025-10-01_14h25.33.829, Motor Sequence Learning,,2025.1.1,None,2025-10-01 14h25.45.506259 +0530,
50,c,15,15,3,c,1,0.6789200410130434,None,,,,,3,15,15,2,500.3160920829978,,500.29041020799195,500.3160920829978,501.28815762500744,501.28815762500744,501.28815762500744,501.28815762500744,501.3039165000082,502.288054500008,502.288054500008,502.9731902499916,,,,,c,1,0.6789200410130434,None,5,001,2025-10-01_14h25.33.829, Motor Sequence Learning,,2025.1.1,None,2025-10-01 14h25.45.506259 +0530,
-50,x,16,16,2,x,1,0.5668147499673069,None,,,,,2,16,16,0,502.9823475420126,,502.9737457919982,502.9823475420126,503.9710295419791,503.9710295419791,503.9710295419791,503.9710295419791,503.9710295419791,504.97205654199934,504.97205654199934,505.551241417008,,,,,x,1,0.5668147499673069,None,5,001,2025-10-01_14h25.33.829, Motor Sequence Learning,,2025.1.1,None,2025-10-01 14h25.45.506259 +0530,
50,c,17,17,4,c,1,0.4417159580043517,None,,,,,4,17,17,2,505.5609234169824,,505.55177287501283,505.5609234169824,506.54917845799355,506.54917845799355,506.54917845799355,506.54917845799355,506.55399179196684,507.54918545798864,507.54918545798864,508.00109375000466,,,,,c,1,0.4417159580043517,None,5,001,2025-10-01_14h25.33.829, Motor Sequence Learning,,2025.1.1,None,2025-10-01 14h25.45.506259 +0530,
-50,x,18,18,3,x,1,0.6276408740086481,None,,,,,3,18,18,0,508.01075529202353,,508.00189712498104,508.01075529202353,508.99932366696885,508.99932366696885,508.99932366696885,508.99932366696885,509.00395012501394,509.99925020796945,509.99925020796945,510.6342473750119,,,,,x,1,0.6276408740086481,None,5,001,2025-10-01_14h25.33.829, Motor Sequence Learning,,2025.1.1,None,2025-10-01 14h25.45.506259 +0530,
-50,x,19,19,4,x,1,0.4822539989836514,None,,,,,4,19,19,0,510.6438227079925,,510.63485695800046,510.6438227079925,511.63255962502444,511.63255962502444,511.63255962502444,511.63255962502444,511.6372080000001,512.6324879999738,512.6324879999738,513.1182194579742,,,,,x,1,0.4822539989836514,None,5,001,2025-10-01_14h25.33.829, Motor Sequence Learning,,2025.1.1,None,2025-10-01 14h25.45.506259 +0530,
-50,x,20,20,5,x,1,0.48477062402525917,None,,,,,5,20,20,0,513.1280775420018,,513.1189118329785,513.1280775420018,514.1159302919987,514.1159302919987,514.1159302919987,514.1159302919987,514.1213764999993,515.1158442079904,515.1158442079904,515.6064267500187,,,,,x,1,0.48477062402525917,None,5,001,2025-10-01_14h25.33.829, Motor Sequence Learning,,2025.1.1,None,2025-10-01 14h25.45.506259 +0530,
-50,x,21,21,6,x,1,0.3783701659995131,None,,,,,6,21,21,0,515.6157100829878,,515.60701495799,515.6157100829878,516.6049222080037,516.6049222080037,516.6049222080037,516.6049222080037,516.6049222080037,517.6052464169916,517.6052464169916,517.989386332978,,,,,x,1,0.3783701659995131,None,5,001,2025-10-01_14h25.33.829, Motor Sequence Learning,,2025.1.1,None,2025-10-01 14h25.45.506259 +0530,
-50,x,22,22,7,x,1,0.47387949901167303,None,,,,,7,22,22,0,517.9989134580246,,517.9899495830177,517.9989134580246,518.9877272499725,518.9877272499725,518.9877272499725,518.9877272499725,518.9877272499725,519.988850291993,519.988850291993,520.4681990420213,,,,,x,1,0.47387949901167303,None,5,001,2025-10-01_14h25.33.829, Motor Sequence Learning,,2025.1.1,None,2025-10-01 14h25.45.506259 +0530,
50,c,23,23,5,c,1,0.3656866659875959,None,,,,,5,23,23,2,520.4778502080007,,520.4689160420094,520.4778502080007,521.4657970829867,521.4657970829867,521.4657970829867,521.4657970829867,521.4709368330077,522.4658581669792,522.4658581669792,522.8344495419879,,,,,c,1,0.3656866659875959,None,5,001,2025-10-01_14h25.33.829, Motor Sequence Learning,,2025.1.1,None,2025-10-01 14h25.45.506259 +0530,
-150,z,24,24,4,z,1,0.3759429579949938,None,,,,,4,24,24,3,522.8440522080055,,522.8350366249797,522.8440522080055,523.8325932080043,523.8325932080043,523.8325932080043,523.8325932080043,523.838247333013,524.8324675830081,524.8324675830081,525.2182851249818,,,,,z,1,0.3759429579949938,None,5,001,2025-10-01_14h25.33.829, Motor Sequence Learning,,2025.1.1,None,2025-10-01 14h25.45.506259 +0530,
150,v,25,25,6,v,1,0.34670879202894866,None,,,,,6,25,25,1,525.2290142499842,,525.2193090830115,525.2290142499842,526.215803041996,526.215803041996,526.215803041996,526.215803041996,526.2209020419978,527.2158285829937,527.2158285829937,527.5677665830008,,,,,v,1,0.34670879202894866,None,5,001,2025-10-01_14h25.33.829, Motor Sequence Learning,,2025.1.1,None,2025-10-01 14h25.45.506259 +0530,
50,c,26,26,6,c,1,0.45662133302539587,None,,,,,6,26,26,2,527.5778611669666,,527.5683420830173,527.5778611669666,528.5657783329953,528.5657783329953,528.5657783329953,528.5657783329953,528.5704130000086,529.5657871249714,529.5657871249714,530.0344736669795,,,,,c,1,0.45662133302539587,None,5,001,2025-10-01_14h25.33.829, Motor Sequence Learning,,2025.1.1,None,2025-10-01 14h25.45.506259 +0530,
50,c,27,27,7,c,1,0.512885042000562,None,,,,,7,27,27,2,530.0445283330046,,530.0352292919997,530.0445283330046,531.032456875022,531.032456875022,531.032456875022,531.032456875022,531.0372397499741,532.0325185420224,532.0325185420224,532.5511285829707,,,,,c,1,0.512885042000562,None,5,001,2025-10-01_14h25.33.829, Motor Sequence Learning,,2025.1.1,None,2025-10-01 14h25.45.506259 +0530,
-150,z,28,28,5,x,0,1.0522160000400618,None,,,,,5,28,28,3,532.5608682080056,,532.551658958022,532.5608682080056,533.5491902079666,533.5491902079666,533.5491902079666,533.5491902079666,533.5543553329771,534.5490577919991,534.5490577919991,535.6056078749825,,,,,x,0,1.0522160000400618,None,5,001,2025-10-01_14h25.33.829, Motor Sequence Learning,,2025.1.1,None,2025-10-01 14h25.45.506259 +0530,
-50,x,29,29,8,x,1,0.4688913329737261,None,,,,,8,29,29,0,535.6151714579901,,535.6061722919694,535.6151714579901,536.6047804169939,536.6047804169939,536.6047804169939,536.6047804169939,536.6047804169939,537.6052740419982,537.6052740419982,538.0845191670232,,,,,x,1,0.4688913329737261,None,5,001,2025-10-01_14h25.33.829, Motor Sequence Learning,,2025.1.1,None,2025-10-01 14h25.45.506259 +0530,
-50,x,30,30,9,x,1,0.33659833297133446,None,,,,,9,30,30,0,538.0947692500195,,538.085231916979,538.0947692500195,539.0824512920226,539.0824512920226,539.0824512920226,539.0824512920226,539.0874320419971,540.0825234170188,540.0825234170188,540.4219567499822,,,,,x,1,0.33659833297133446,None,5,001,2025-10-01_14h25.33.829, Motor Sequence Learning,,2025.1.1,None,2025-10-01 14h25.45.506259 +0530,
50,c,31,31,8,c,1,0.4786054579890333,None,,,,,8,31,31,2,540.4317700419924,,540.4225410419749,540.4317700419924,541.4214469579747,541.4214469579747,541.4214469579747,541.4214469579747,541.4214469579747,542.4215156669961,542.4215156669961,542.9060076670139,,,,,c,1,0.4786054579890333,None,5,001,2025-10-01_14h25.33.829, Motor Sequence Learning,,2025.1.1,None,2025-10-01 14h25.45.506259 +0530,
50,c,32,32,9,c,1,0.4226835829904303,None,,,,,9,32,32,2,542.9154206669773,,542.9065759580117,542.9154206669773,543.9045489170239,543.9045489170239,543.9045489170239,543.9045489170239,543.9045489170239,544.905329125002,544.905329125002,545.3343586670235,,,,,c,1,0.4226835829904303,None,5,001,2025-10-01_14h25.33.829, Motor Sequence Learning,,2025.1.1,None,2025-10-01 14h25.45.506259 +0530,
-150,z,33,33,6,x,0,0.8374832919798791,None,,,,,6,33,33,3,545.3442204999737,,545.3349147500121,545.3442204999737,546.332305125019,546.332305125019,546.332305125019,546.332305125019,546.3373438749695,547.3324857080006,547.3324857080006,548.1724120830186,,,,,x,0,0.8374832919798791,None,5,001,2025-10-01_14h25.33.829, Motor Sequence Learning,,2025.1.1,None,2025-10-01 14h25.45.506259 +0530,
-150,z,34,34,7,x,0,0.9723739579785615,None,,,,,7,34,34,3,548.181895332993,,548.1729997500079,548.181895332993,549.1710690829786,549.1710690829786,549.1710690829786,549.1710690829786,549.1710690829786,550.1716629170114,550.1716629170114,551.1515085829888,,,,,x,0,0.9723739579785615,None,5,001,2025-10-01_14h25.33.829, Motor Sequence Learning,,2025.1.1,None,2025-10-01 14h25.45.506259 +0530,
-50,x,35,35,10,x,1,0.326648665999528,None,,,,,10,35,35,0,551.1616630830104,,551.1521858330234,551.1616630830104,552.1491395829944,552.1491395829944,552.1491395829944,552.1491395829944,552.1545090000145,553.149193499994,553.149193499994,553.4843054999947,,,,,x,1,0.326648665999528,None,5,001,2025-10-01_14h25.33.829, Motor Sequence Learning,,2025.1.1,None,2025-10-01 14h25.45.506259 +0530,
150,v,36,36,7,v,1,0.44656708301045,None,,,,,7,36,36,1,553.4944073749939,,553.4850834999816,553.4944073749939,554.4824752499699,554.4824752499699,554.4824752499699,554.4824752499699,554.4876883749967,555.4823502500076,555.4823502500076,555.9343119169935,,,,,v,1,0.44656708301045,None,5,001,2025-10-01_14h25.33.829, Motor Sequence Learning,,2025.1.1,None,2025-10-01 14h25.45.506259 +0530,
150,v,37,37,8,v,1,0.4263307909714058,None,,,,,8,37,37,1,555.943991624983,,555.9348696669913,555.943991624983,556.9323594999732,556.9323594999732,556.9323594999732,556.9323594999732,556.937509750016,557.9324304169859,557.9324304169859,558.3675932079786,,,,,v,1,0.4263307909714058,None,5,001,2025-10-01_14h25.33.829, Motor Sequence Learning,,2025.1.1,None,2025-10-01 14h25.45.506259 +0530,
150,v,38,38,9,v,1,0.36201487499056384,None,,,,,9,38,38,1,558.3779396250029,,558.368386666989,558.3779396250029,559.3658150419942,559.3658150419942,559.3658150419942,559.3658150419942,559.3708316250122,560.3656765830237,560.3656765830237,560.7344826670014,,,,,v,1,0.36201487499056384,None,5,001,2025-10-01_14h25.33.829, Motor Sequence Learning,,2025.1.1,None,2025-10-01 14h25.45.506259 +0530,
150,v,39,39,10,v,1,0.3863063750322908,None,,,,,10,39,39,1,560.7444802079699,,560.7352482500137,560.7444802079699,561.7323439579923,561.7323439579923,561.7323439579923,561.7323439579923,561.7374028749764,562.7322925829794,562.7322925829794,563.1225852919742,,,,,v,1,0.3863063750322908,None,5,001,2025-10-01_14h25.33.829, Motor Sequence Learning,,2025.1.1,None,2025-10-01 14h25.45.506259 +0530,
50,c,40,40,10,c,1,0.5807789579848759,None,,,,,10,40,40,2,563.1321033749846,,563.1231546669733,563.1321033749846,564.1216900419677,564.1216900419677,564.1216900419677,564.1216900419677,564.1216900419677,565.1218027920113,565.1218027920113,565.7055563749745,,,,,c,1,0.5807789579848759,None,5,001,2025-10-01_14h25.33.829, Motor Sequence Learning,,2025.1.1,None,2025-10-01 14h25.45.506259 +0530,
-50,x,41,41,11,x,1,0.4777610420132987,None,,,,,11,41,41,0,565.7148766670143,,565.7061359579675,565.7148766670143,566.7051517079817,566.7051517079817,566.7051517079817,566.7051517079817,566.7051517079817,567.7047536249738,567.7047536249738,568.1951073749806,,,,,x,1,0.4777610420132987,None,5,001,2025-10-01_14h25.33.829, Motor Sequence Learning,,2025.1.1,None,2025-10-01 14h25.45.506259 +0530,
-150,z,42,42,8,z,1,0.37432591599645093,None,,,,,8,42,42,3,568.1990215830156,,568.1955500830081,568.1990215830156,569.1880250420072,569.1880250420072,569.1880250420072,569.1880250420072,569.1880250420072,570.1892441670061,570.1892441670061,570.5677812079666,,,,,z,1,0.37432591599645093,None,5,001,2025-10-01_14h25.33.829, Motor Sequence Learning,,2025.1.1,None,2025-10-01 14h25.45.506259 +0530,
-150,z,43,43,9,z,1,0.3856288749957457,None,,,,,9,43,43,3,570.577463374997,,570.5683193330187,570.577463374997,571.5657577919774,571.5657577919774,571.5657577919774,571.5657577919774,571.570966875006,572.5658183330088,572.5658183330088,572.9563360419706,,,,,z,1,0.3856288749957457,None,5,001,2025-10-01_14h25.33.829, Motor Sequence Learning,,2025.1.1,None,2025-10-01 14h25.45.506259 +0530,
-150,z,44,44,10,z,1,0.401223375054542,None,,,,,10,44,44,3,572.9826776669943,,572.9569074169849,572.9826776669943,573.9550133749726,573.9550133749726,573.9550133749726,573.9550133749726,573.9698106669821,574.9551871669828,574.9551871669828,575.3678458330105,,,,,z,1,0.401223375054542,None,5,001,2025-10-01_14h25.33.829, Motor Sequence Learning,,2025.1.1,None,2025-10-01 14h25.45.506259 +0530,
150,v,45,45,11,v,1,0.3226296250359155,None,,,,,11,45,45,1,575.3772620420204,,575.368386792019,575.3772620420204,576.3656480420032,576.3656480420032,576.3656480420032,576.3656480420032,576.3707952499972,577.3656334999832,577.3656334999832,577.7010232919711,,,,,v,1,0.3226296250359155,None,5,001,2025-10-01_14h25.33.829, Motor Sequence Learning,,2025.1.1,None,2025-10-01 14h25.45.506259 +0530,
150,v,46,46,12,v,1,0.3623822499648668,None,,,,,12,46,46,1,577.709251250024,,577.7017816249863,577.709251250024,578.698930707993,578.698930707993,578.698930707993,578.698930707993,578.7040954579716,579.6990252920077,579.6990252920077,580.067390332988,,,,,v,1,0.3623822499648668,None,5,001,2025-10-01_14h25.33.829, Motor Sequence Learning,,2025.1.1,None,2025-10-01 14h25.45.506259 +0530,
-150,z,47,47,11,z,1,0.32772416598163545,None,,,,,11,47,47,3,580.0762581250165,,580.0680287079886,580.0762581250165,581.0656907500234,581.0656907500234,581.0656907500234,581.0656907500234,581.070736832975,582.0656202500104,582.0656202500104,582.4009756669984,,,,,z,1,0.32772416598163545,None,5,001,2025-10-01_14h25.33.829, Motor Sequence Learning,,2025.1.1,None,2025-10-01 14h25.45.506259 +0530,
150,v,48,48,13,v,1,0.4232627499732189,None,,,,,13,48,48,1,582.4111691669677,,582.4017630419694,582.4111691669677,583.3990410830011,583.3990410830011,583.3990410830011,583.3990410830011,583.4045009170077,584.3990150829777,584.3990150829777,584.8343544169911,,,,,v,1,0.4232627499732189,None,5,001,2025-10-01_14h25.33.829, Motor Sequence Learning,,2025.1.1,None,2025-10-01 14h25.45.506259 +0530,
50,c,49,49,11,c,1,0.42072916601318866,None,,,,,11,49,49,2,584.8428401669953,,584.8348887920147,584.8428401669953,585.8323859170196,585.8323859170196,585.8323859170196,585.8323859170196,585.8380325830076,586.8324395000236,586.8324395000236,587.2557772080181,,,,,c,1,0.42072916601318866,None,5,001,2025-10-01_14h25.33.829, Motor Sequence Learning,,2025.1.1,None,2025-10-01 14h25.45.506259 +0530,
