thisN,thisTrialN,thisRepN,mouse.x,mouse.y,mouse.leftButton,mouse.midButton,mouse.rightButton,mouse.time,mouse.clicked_name,trials.thisRepN,trials.thisTrialN,trials.thisN,trials.thisIndex,thisRow.t,notes,num_distr,trial.started,fixation.started,target.started,mouse.started,trial.stopped,trials.mouse.x,trials.mouse.y,trials.mouse.leftButton,trials.mouse.midButton,trials.mouse.rightButton,trials.mouse.time,trials.mouse.clicked_name,participant,session,date,expName,expVersion,psychopyVersion,frameRate,expStart,
0,0,0,[np.float64(0.16666666666666666)],[np.float64(-0.48)],[1],[0],[0],[2.598043083009543],['target'],0,0,0,0,0.02234254201175645,,10,0.014327000011689961,0.02234254201175645,0.02234254201175645,0.014336457999888808,2.612438417010708,[np.float64(0.16666666666666666)],[np.float64(-0.48)],[1],[0],[0],[2.598043083009543],['target'],5,001,2025-09-28_17h09.12.992,Visual Search Experiment,,2025.1.1,None,2025-09-28 17h09.23.371372 +0530,
1,0,1,[np.float64(-0.015)],[np.float64(-0.135)],[1],[0],[0],[0.9976374589896295],['target'],1,0,1,0,2.6387027089949697,,10,2.6310155840183143,2.6387027089949697,2.6387027089949697,0.01833558300859295,3.628696542000398,[np.float64(-0.015)],[np.float64(-0.135)],[1],[0],[0],[0.9976374589896295],['target'],5,001,2025-09-28_17h09.12.992,Visual Search Experiment,,2025.1.1,None,2025-09-28 17h09.23.371372 +0530,
2,0,2,[np.float64(-0.365)],[np.float64(0.49333333333333335)],[1],[0],[0],[4.604620583006181],['target'],2,0,2,0,3.6458622500067577,,5,3.6398362920153886,3.6458622500067577,3.6458622500067577,0.010969541996018961,8.24452045900398,[np.float64(-0.365)],[np.float64(0.49333333333333335)],[1],[0],[0],[4.604620583006181],['target'],5,001,2025-09-28_17h09.12.992,Visual Search Experiment,,2025.1.1,None,2025-09-28 17h09.23.371372 +0530,
3,0,3,[np.float64(0.14)],[np.float64(0.035)],[1],[0],[0],[1.6125165419944096],['target'],3,0,3,0,8.275271000020439,,10,8.266339374997187,8.275271000020439,8.275271000020439,0.021637791011016816,9.878895667003235,[np.float64(0.14)],[np.float64(0.035)],[1],[0],[0],[1.6125165419944096],['target'],5,001,2025-09-28_17h09.12.992,Visual Search Experiment,,2025.1.1,None,2025-09-28 17h09.23.371372 +0530,
4,0,4,[np.float64(0.43666666666666665)],[np.float64(-0.48333333333333334)],[1],[0],[0],[1.8058820419828407],[None],4,0,4,0,9.896539167006267,,5,9.890148584003327,9.896539167006267,9.896539167006267,0.011087666993262246,11.696093250007834,[np.float64(0.43666666666666665)],[np.float64(-0.48333333333333334)],[1],[0],[0],[1.8058820419828407],[None],5,001,2025-09-28_17h09.12.992,Visual Search Experiment,,2025.1.1,None,2025-09-28 17h09.23.371372 +0530,
5,0,5,[np.float64(-0.07333333333333333)],[np.float64(0.4533333333333333)],[1],[0],[0],[2.310126833006507],['target'],5,0,5,0,11.726390750001883,,10,11.717890083993552,11.726390750001883,11.726390750001883,0.0216178749979008,14.02806083401083,[np.float64(-0.07333333333333333)],[np.float64(0.4533333333333333)],[1],[0],[0],[2.310126833006507],['target'],5,001,2025-09-28_17h09.12.992,Visual Search Experiment,,2025.1.1,None,2025-09-28 17h09.23.371372 +0530,
6,0,6,[np.float64(0.08166666666666667)],[np.float64(-0.025)],[1],[0],[0],[1.1137029999808874],['target'],6,0,6,0,14.055594959005248,,10,14.047877334000077,14.055594959005248,14.055594959005248,0.019651874987175688,15.161624583997764,[np.float64(0.08166666666666667)],[np.float64(-0.025)],[1],[0],[0],[1.1137029999808874],['target'],5,001,2025-09-28_17h09.12.992,Visual Search Experiment,,2025.1.1,None,2025-09-28 17h09.23.371372 +0530,
7,0,7,[np.float64(0.05333333333333334)],[np.float64(0.4766666666666667)],[1],[0],[0],[2.421542500000214],['target'],7,0,7,0,15.179274541995255,,5,15.172946334001608,15.179274541995255,15.179274541995255,0.011155041982419789,17.594557042000815,[np.float64(0.05333333333333334)],[np.float64(0.4766666666666667)],[1],[0],[0],[2.421542500000214],['target'],5,001,2025-09-28_17h09.12.992,Visual Search Experiment,,2025.1.1,None,2025-09-28 17h09.23.371372 +0530,
8,0,8,[np.float64(0.475)],[np.float64(0.445)],[1],[0],[0],[1.1607640419970267],['target'],8,0,8,0,17.6254778339935,,10,17.616887792013586,17.6254778339935,17.6254778339935,0.02213108300929889,18.777691249997588,[np.float64(0.475)],[np.float64(0.445)],[1],[0],[0],[1.1607640419970267],['target'],5,001,2025-09-28_17h09.12.992,Visual Search Experiment,,2025.1.1,None,2025-09-28 17h09.23.371372 +0530,
9,0,9,[np.float64(0.03833333333333333)],[np.float64(0.058333333333333334)],[1],[0],[0],[1.5972225829900708],['target'],9,0,9,0,18.804371209000237,,10,18.79709016700508,18.804371209000237,18.804371209000237,0.01923387500573881,20.394356459000846,[np.float64(0.03833333333333333)],[np.float64(0.058333333333333334)],[1],[0],[0],[1.5972225829900708],['target'],5,001,2025-09-28_17h09.12.992,Visual Search Experiment,,2025.1.1,None,2025-09-28 17h09.23.371372 +0530,
10,0,10,[np.float64(0.17333333333333334)],[np.float64(0.46166666666666667)],[1],[0],[0],[1.931370332982624],['target'],10,0,10,0,20.421083249995718,,10,20.413563917012652,20.421083249995718,20.421083249995718,0.019039167003938928,22.34497737500351,[np.float64(0.17333333333333334)],[np.float64(0.46166666666666667)],[1],[0],[0],[1.931370332982624],['target'],5,001,2025-09-28_17h09.12.992,Visual Search Experiment,,2025.1.1,None,2025-09-28 17h09.23.371372 +0530,
11,0,11,[np.float64(-0.18833333333333332)],[np.float64(-0.295)],[1],[0],[0],[1.2218118330056313],['target'],11,0,11,0,22.362287791998824,,5,22.355963084002724,22.362287791998824,22.362287791998824,0.010820124996826053,23.57783679201384,[np.float64(-0.18833333333333332)],[np.float64(-0.295)],[1],[0],[0],[1.2218118330056313],['target'],5,001,2025-09-28_17h09.12.992,Visual Search Experiment,,2025.1.1,None,2025-09-28 17h09.23.371372 +0530,
12,0,12,[np.float64(-0.31166666666666665)],[np.float64(0.08166666666666667)],[1],[0],[0],[0.9465259579883423],['target'],12,0,12,0,23.60793712499435,,10,23.599002917006146,23.60793712499435,23.60793712499435,0.020992707984987646,24.54556887500803,[np.float64(-0.31166666666666665)],[np.float64(0.08166666666666667)],[1],[0],[0],[0.9465259579883423],['target'],5,001,2025-09-28_17h09.12.992,Visual Search Experiment,,2025.1.1,None,2025-09-28 17h09.23.371372 +0530,
13,0,13,[np.float64(0.05333333333333334)],[np.float64(-0.37166666666666665)],[1],[0],[0],[1.6972523750155233],['target'],13,0,13,0,24.57326337500126,,10,24.56559016701067,24.57326337500126,24.57326337500126,0.019860917003825307,26.26286912499927,[np.float64(0.05333333333333334)],[np.float64(-0.37166666666666665)],[1],[0],[0],[1.6972523750155233],['target'],5,001,2025-09-28_17h09.12.992,Visual Search Experiment,,2025.1.1,None,2025-09-28 17h09.23.371372 +0530,
14,0,14,[np.float64(-0.10833333333333334)],[np.float64(0.18)],[1],[0],[0],[0.9617793340003118],['target'],14,0,14,0,26.291301709017716,,10,26.283070167002734,26.291301709017716,26.291301709017716,0.020025958016049117,27.24489166701096,[np.float64(-0.10833333333333334)],[np.float64(0.18)],[1],[0],[0],[0.9617793340003118],['target'],5,001,2025-09-28_17h09.12.992,Visual Search Experiment,,2025.1.1,None,2025-09-28 17h09.23.371372 +0530,
15,0,15,[np.float64(-0.255)],[np.float64(0.065)],[1],[0],[0],[1.206957082991721],['target'],15,0,15,0,27.262526542006526,,5,27.25614750001114,27.262526542006526,27.262526542006526,0.011082916986197233,28.46317483400344,[np.float64(-0.255)],[np.float64(0.065)],[1],[0],[0],[1.206957082991721],['target'],5,001,2025-09-28_17h09.12.992,Visual Search Experiment,,2025.1.1,None,2025-09-28 17h09.23.371372 +0530,
16,0,16,[np.float64(-0.43833333333333335)],[np.float64(-0.13833333333333334)],[1],[0],[0],[1.8421630839875434],['target'],16,0,16,0,28.49479125000653,,10,28.48598591701011,28.49479125000653,28.49479125000653,0.022633999993558973,30.328191834007157,[np.float64(-0.43833333333333335)],[np.float64(-0.13833333333333334)],[1],[0],[0],[1.8421630839875434],['target'],5,001,2025-09-28_17h09.12.992,Visual Search Experiment,,2025.1.1,None,2025-09-28 17h09.23.371372 +0530,
17,0,17,[np.float64(-0.25166666666666665)],[np.float64(0.005)],[1],[0],[0],[0.9816332499904092],['target'],17,0,17,0,30.354762000002665,,10,30.347442375001265,30.354762000002665,30.354762000002665,0.019080250000115484,31.329119125002762,[np.float64(-0.25166666666666665)],[np.float64(0.005)],[1],[0],[0],[0.9816332499904092],['target'],5,001,2025-09-28_17h09.12.992,Visual Search Experiment,,2025.1.1,None,2025-09-28 17h09.23.371372 +0530,
18,0,18,[np.float64(-0.37833333333333335)],[np.float64(-0.48333333333333334)],[1],[0],[0],[2.403710583021166],['target'],18,0,18,0,31.34709450000082,,5,31.340730458992766,31.34709450000082,31.34709450000082,0.011453457991592586,33.744494209007826,[np.float64(-0.37833333333333335)],[np.float64(-0.48333333333333334)],[1],[0],[0],[2.403710583021166],['target'],5,001,2025-09-28_17h09.12.992,Visual Search Experiment,,2025.1.1,None,2025-09-28 17h09.23.371372 +0530,
19,0,19,[np.float64(0.15666666666666668)],[np.float64(-0.011666666666666667)],[1],[0],[0],[1.7626790840004105],['target'],19,0,19,0,33.77389329200378,,10,33.76546891700127,33.77389329200378,33.77389329200378,0.020823833998292685,35.52819270899636,[np.float64(0.15666666666666668)],[np.float64(-0.011666666666666667)],[1],[0],[0],[1.7626790840004105],['target'],5,001,2025-09-28_17h09.12.992,Visual Search Experiment,,2025.1.1,None,2025-09-28 17h09.23.371372 +0530,
20,0,20,[np.float64(-0.09666666666666666)],[np.float64(-0.2916666666666667)],[1],[0],[0],[1.689857999997912],['target'],20,0,20,0,35.544845416996395,,5,35.538852375000715,35.544845416996395,35.544845416996395,0.010493250010767952,37.22878812500858,[np.float64(-0.09666666666666666)],[np.float64(-0.2916666666666667)],[1],[0],[0],[1.689857999997912],['target'],5,001,2025-09-28_17h09.12.992,Visual Search Experiment,,2025.1.1,None,2025-09-28 17h09.23.371372 +0530,
21,0,21,[np.float64(-0.4583333333333333)],[np.float64(-0.12333333333333334)],[1],[0],[0],[3.029379333020188],['target'],21,0,21,0,37.25674079201417,,10,37.24891808402026,37.25674079201417,37.25674079201417,0.019941291015129536,40.278342042001896,[np.float64(-0.4583333333333333)],[np.float64(-0.12333333333333334)],[1],[0],[0],[3.029379333020188],['target'],5,001,2025-09-28_17h09.12.992,Visual Search Experiment,,2025.1.1,None,2025-09-28 17h09.23.371372 +0530,
22,0,22,[np.float64(-0.02666666666666667)],[np.float64(-0.3016666666666667)],[1],[0],[0],[1.7823937500070315],['target'],22,0,22,0,40.30429391699727,,10,40.296861250011716,40.30429391699727,40.30429391699727,0.018350458005443215,42.079307209001854,[np.float64(-0.02666666666666667)],[np.float64(-0.3016666666666667)],[1],[0],[0],[1.7823937500070315],['target'],5,001,2025-09-28_17h09.12.992,Visual Search Experiment,,2025.1.1,None,2025-09-28 17h09.23.371372 +0530,
23,0,23,[np.float64(-0.21666666666666667)],[np.float64(0.11333333333333333)],[1],[0],[0],[1.2051760420145001],['target'],23,0,23,0,42.09800012499909,,5,42.09125104200211,42.09800012499909,42.09800012499909,0.01173520801239647,43.29649045900442,[np.float64(-0.21666666666666667)],[np.float64(0.11333333333333333)],[1],[0],[0],[1.2051760420145001],['target'],5,001,2025-09-28_17h09.12.992,Visual Search Experiment,,2025.1.1,None,2025-09-28 17h09.23.371372 +0530,
24,0,24,[np.float64(-0.145)],[np.float64(-0.008333333333333333)],[1],[0],[0],[1.0258327079936862],['target'],24,0,24,0,43.32768812502036,,10,43.318899542005965,43.32768812502036,43.32768812502036,0.022239958023419604,44.34473437501583,[np.float64(-0.145)],[np.float64(-0.008333333333333333)],[1],[0],[0],[1.0258327079936862],['target'],5,001,2025-09-28_17h09.12.992,Visual Search Experiment,,2025.1.1,None,2025-09-28 17h09.23.371372 +0530,
25,0,25,[np.float64(0.23)],[np.float64(0.305)],[1],[0],[0],[1.6391085840004962],['target'],25,0,25,0,44.36215733399149,,5,44.35597158400924,44.36215733399149,44.36215733399149,0.01106529199751094,45.99515137501294,[np.float64(0.23)],[np.float64(0.305)],[1],[0],[0],[1.6391085840004962],['target'],5,001,2025-09-28_17h09.12.992,Visual Search Experiment,,2025.1.1,None,2025-09-28 17h09.23.371372 +0530,
26,0,26,[np.float64(-0.37)],[np.float64(0.185)],[1],[0],[0],[1.2888528750045225],['target'],26,0,26,0,46.01467487501213,,5,46.00794675000361,46.01467487501213,46.01467487501213,0.01262808300089091,47.29686370899435,[np.float64(-0.37)],[np.float64(0.185)],[1],[0],[0],[1.2888528750045225],['target'],5,001,2025-09-28_17h09.12.992,Visual Search Experiment,,2025.1.1,None,2025-09-28 17h09.23.371372 +0530,
27,0,27,[np.float64(0.2916666666666667)],[np.float64(-0.3333333333333333)],[1],[0],[0],[2.541592875000788],['target'],27,0,27,0,47.328331208991585,,10,47.319485667016124,47.328331208991585,47.328331208991585,0.022443833004217595,49.86111787499976,[np.float64(0.2916666666666667)],[np.float64(-0.3333333333333333)],[1],[0],[0],[2.541592875000788],['target'],5,001,2025-09-28_17h09.12.992,Visual Search Experiment,,2025.1.1,None,2025-09-28 17h09.23.371372 +0530,
28,0,28,[np.float64(0.30666666666666664)],[np.float64(-0.11833333333333333)],[1],[0],[0],[3.4496602909930516],['target'],28,0,28,0,49.88601537499926,,10,49.87901624999358,49.88601537499926,49.88601537499926,0.01772825000807643,53.328724374994636,[np.float64(0.30666666666666664)],[np.float64(-0.11833333333333333)],[1],[0],[0],[3.4496602909930516],['target'],5,001,2025-09-28_17h09.12.992,Visual Search Experiment,,2025.1.1,None,2025-09-28 17h09.23.371372 +0530,
29,0,29,[np.float64(-0.09666666666666666)],[np.float64(-0.41)],[1],[0],[0],[2.4383114999800455],['target'],29,0,29,0,53.346252792020096,,5,53.339933334005764,53.346252792020096,53.346252792020096,0.011037874995963648,55.77829516699421,[np.float64(-0.09666666666666666)],[np.float64(-0.41)],[1],[0],[0],[2.4383114999800455],['target'],5,001,2025-09-28_17h09.12.992,Visual Search Experiment,,2025.1.1,None,2025-09-28 17h09.23.371372 +0530,
30,0,30,[np.float64(-0.32166666666666666)],[np.float64(-0.011666666666666667)],[1],[0],[0],[1.4717890830070246],['target'],30,0,30,0,55.79630354201072,,5,55.78970983400359,55.79630354201072,55.79630354201072,0.011279625003226101,57.2615588339977,[np.float64(-0.32166666666666666)],[np.float64(-0.011666666666666667)],[1],[0],[0],[1.4717890830070246],['target'],5,001,2025-09-28_17h09.12.992,Visual Search Experiment,,2025.1.1,None,2025-09-28 17h09.23.371372 +0530,
31,0,31,[np.float64(0.03333333333333333)],[np.float64(-0.14833333333333334)],[1],[0],[0],[1.2617714589869138],['target'],31,0,31,0,57.291677750006784,,10,57.28314691700507,57.291677750006784,57.291677750006784,0.02140441699884832,58.544961834006244,[np.float64(0.03333333333333333)],[np.float64(-0.14833333333333334)],[1],[0],[0],[1.2617714589869138],['target'],5,001,2025-09-28_17h09.12.992,Visual Search Experiment,,2025.1.1,None,2025-09-28 17h09.23.371372 +0530,
32,0,32,[np.float64(-0.4816666666666667)],[np.float64(-0.36833333333333335)],[1],[0],[0],[1.9720214580011088],['target'],32,0,32,0,58.56253133399878,,5,58.55624295899179,58.56253133399878,58.56253133399878,0.011117332993308082,60.52832712500822,[np.float64(-0.4816666666666667)],[np.float64(-0.36833333333333335)],[1],[0],[0],[1.9720214580011088],['target'],5,001,2025-09-28_17h09.12.992,Visual Search Experiment,,2025.1.1,None,2025-09-28 17h09.23.371372 +0530,
33,0,33,[np.float64(-0.06)],[np.float64(-0.2966666666666667)],[1],[0],[0],[1.4065832500054967],['target'],33,0,33,0,60.54636079201009,,5,60.53980225001578,60.54636079201009,60.54636079201009,0.011305416002869606,61.94645641700481,[np.float64(-0.06)],[np.float64(-0.2966666666666667)],[1],[0],[0],[1.4065832500054967],['target'],5,001,2025-09-28_17h09.12.992,Visual Search Experiment,,2025.1.1,None,2025-09-28 17h09.23.371372 +0530,
34,0,34,[np.float64(0.28833333333333333)],[np.float64(-0.03833333333333333)],[1],[0],[0],[1.3099725419888273],['target'],34,0,34,0,61.9772717920132,,10,61.96810374999768,61.9772717920132,61.9772717920132,0.02148079199832864,63.27811541699339,[np.float64(0.28833333333333333)],[np.float64(-0.03833333333333333)],[1],[0],[0],[1.3099725419888273],['target'],5,001,2025-09-28_17h09.12.992,Visual Search Experiment,,2025.1.1,None,2025-09-28 17h09.23.371372 +0530,
35,0,35,[np.float64(0.225)],[np.float64(-0.06666666666666667)],[1],[0],[0],[1.6154419159865938],['target'],35,0,35,0,63.30381391700939,,10,63.29661462499644,63.30381391700939,63.30381391700939,0.018330958992009982,64.91210283400142,[np.float64(0.225)],[np.float64(-0.06666666666666667)],[1],[0],[0],[1.6154419159865938],['target'],5,001,2025-09-28_17h09.12.992,Visual Search Experiment,,2025.1.1,None,2025-09-28 17h09.23.371372 +0530,
36,0,36,[np.float64(-0.31666666666666665)],[np.float64(0.44666666666666666)],[1],[0],[0],[2.0885346669820137],['target'],36,0,36,0,64.9291240000166,,5,64.9229956670024,64.9291240000166,64.9291240000166,0.01072566700167954,67.01159720899886,[np.float64(-0.31666666666666665)],[np.float64(0.44666666666666666)],[1],[0],[0],[2.0885346669820137],['target'],5,001,2025-09-28_17h09.12.992,Visual Search Experiment,,2025.1.1,None,2025-09-28 17h09.23.371372 +0530,
37,0,37,[np.float64(0.3333333333333333)],[np.float64(0.08)],[1],[0],[0],[2.2948862909979653],['target'],37,0,37,0,67.04246079199947,,10,67.03361129201949,67.04246079199947,67.04246079199947,0.021835749997990206,69.32854162500007,[np.float64(0.3333333333333333)],[np.float64(0.08)],[1],[0],[0],[2.2948862909979653],['target'],5,001,2025-09-28_17h09.12.992,Visual Search Experiment,,2025.1.1,None,2025-09-28 17h09.23.371372 +0530,
38,0,38,[np.float64(-0.09666666666666666)],[np.float64(-0.41333333333333333)],[1],[0],[0],[1.521389083005488],['target'],38,0,38,0,69.34573887501028,,5,69.33959887499805,69.34573887501028,69.34573887501028,0.010887959011597559,70.86105137501727,[np.float64(-0.09666666666666666)],[np.float64(-0.41333333333333333)],[1],[0],[0],[1.521389083005488],['target'],5,001,2025-09-28_17h09.12.992,Visual Search Experiment,,2025.1.1,None,2025-09-28 17h09.23.371372 +0530,
39,0,39,[np.float64(0.26666666666666666)],[np.float64(0.41333333333333333)],[1],[0],[0],[1.4048687500180677],['target'],39,0,39,0,70.88009758401313,,5,70.87335716700181,70.88009758401313,70.88009758401313,0.012129916984122247,72.27830937501858,[np.float64(0.26666666666666666)],[np.float64(0.41333333333333333)],[1],[0],[0],[1.4048687500180677],['target'],5,001,2025-09-28_17h09.12.992,Visual Search Experiment,,2025.1.1,None,2025-09-28 17h09.23.371372 +0530,
40,0,40,[np.float64(0.37666666666666665)],[np.float64(0.3616666666666667)],[1],[0],[0],[1.3047003749816213],['target'],40,0,40,0,72.29771008400712,,5,72.2907628340181,72.29771008400712,72.29771008400712,0.012279209011467174,73.59553920899634,[np.float64(0.37666666666666665)],[np.float64(0.3616666666666667)],[1],[0],[0],[1.3047003749816213],['target'],5,001,2025-09-28_17h09.12.992,Visual Search Experiment,,2025.1.1,None,2025-09-28 17h09.23.371372 +0530,
41,0,41,[np.float64(0.48333333333333334)],[np.float64(-0.4633333333333333)],[1],[0],[0],[2.2131480829848442],['target'],41,0,41,0,73.62444679200416,,10,73.61600804200862,73.62444679200416,73.62444679200416,0.02028591700945981,75.82919720900827,[np.float64(0.48333333333333334)],[np.float64(-0.4633333333333333)],[1],[0],[0],[2.2131480829848442],['target'],5,001,2025-09-28_17h09.12.992,Visual Search Experiment,,2025.1.1,None,2025-09-28 17h09.23.371372 +0530,
42,0,42,[np.float64(-0.008333333333333333)],[np.float64(0.35)],[1],[0],[0],[1.0216887909919024],['target'],42,0,42,0,75.84627637499943,,5,75.84014991699951,75.84627637499943,75.84627637499943,0.010788874991703779,76.86189941701014,[np.float64(-0.008333333333333333)],[np.float64(0.35)],[1],[0],[0],[1.0216887909919024],['target'],5,001,2025-09-28_17h09.12.992,Visual Search Experiment,,2025.1.1,None,2025-09-28 17h09.23.371372 +0530,
43,0,43,[np.float64(0.26666666666666666)],[np.float64(-0.415)],[1],[0],[0],[3.1612759999989066],['target'],43,0,43,0,76.89131483400706,,10,76.88314366701525,76.89131483400706,76.89131483400706,0.021069667011033744,80.04445362501428,[np.float64(0.26666666666666666)],[np.float64(-0.415)],[1],[0],[0],[3.1612759999989066],['target'],5,001,2025-09-28_17h09.12.992,Visual Search Experiment,,2025.1.1,None,2025-09-28 17h09.23.371372 +0530,
44,0,44,[np.float64(-0.4633333333333333)],[np.float64(0.055)],[1],[0],[0],[2.9168745420174673],['target'],44,0,44,0,80.06869912499678,,10,80.06161833400256,80.06869912499678,80.06869912499678,0.017023249994963408,82.97854170901701,[np.float64(-0.4633333333333333)],[np.float64(0.055)],[1],[0],[0],[2.9168745420174673],['target'],5,001,2025-09-28_17h09.12.992,Visual Search Experiment,,2025.1.1,None,2025-09-28 17h09.23.371372 +0530,
45,0,45,[np.float64(0.40166666666666667)],[np.float64(-0.3466666666666667)],[1],[0],[0],[1.7717525420011953],['target'],45,0,45,0,82.99587695900118,,5,82.98966683400795,82.99587695900118,82.99587695900118,0.010956458019791171,84.76147966700955,[np.float64(0.40166666666666667)],[np.float64(-0.3466666666666667)],[1],[0],[0],[1.7717525420011953],['target'],5,001,2025-09-28_17h09.12.992,Visual Search Experiment,,2025.1.1,None,2025-09-28 17h09.23.371372 +0530,
46,0,46,[np.float64(-0.42833333333333334)],[np.float64(-0.14833333333333334)],[1],[0],[0],[2.1297743750037625],['target'],46,0,46,0,84.7903522500128,,10,84.78199995899922,84.7903522500128,84.7903522500128,0.02034316599019803,86.91181712501566,[np.float64(-0.42833333333333334)],[np.float64(-0.14833333333333334)],[1],[0],[0],[2.1297743750037625],['target'],5,001,2025-09-28_17h09.12.992,Visual Search Experiment,,2025.1.1,None,2025-09-28 17h09.23.371372 +0530,
47,0,47,[np.float64(-0.10833333333333334)],[np.float64(-0.23333333333333334)],[1],[0],[0],[1.2884125410055276],['target'],47,0,47,0,86.92959675000748,,5,86.92333729201346,86.92959675000748,86.92959675000748,0.011354374990332872,88.21181187499315,[np.float64(-0.10833333333333334)],[np.float64(-0.23333333333333334)],[1],[0],[0],[1.2884125410055276],['target'],5,001,2025-09-28_17h09.12.992,Visual Search Experiment,,2025.1.1,None,2025-09-28 17h09.23.371372 +0530,
48,0,48,[np.float64(0.425)],[np.float64(0.44)],[1],[0],[0],[1.878269500011811],['target'],48,0,48,0,88.28746008401504,,5,88.28312829200877,88.28746008401504,88.28746008401504,0.0711298749956768,90.16145862499252,[np.float64(0.425)],[np.float64(0.44)],[1],[0],[0],[1.878269500011811],['target'],5,001,2025-09-28_17h09.12.992,Visual Search Experiment,,2025.1.1,None,2025-09-28 17h09.23.371372 +0530,
49,0,49,[np.float64(-0.085)],[np.float64(0.22833333333333333)],[1],[0],[0],[2.213340791000519],['target'],49,0,49,0,90.19013200001791,,10,90.18184000000474,90.19013200001791,90.19013200001791,0.020195125020109117,92.39522187502007,[np.float64(-0.085)],[np.float64(0.22833333333333333)],[1],[0],[0],[2.213340791000519],['target'],5,001,2025-09-28_17h09.12.992,Visual Search Experiment,,2025.1.1,None,2025-09-28 17h09.23.371372 +0530,
50,0,50,[np.float64(0.14833333333333334)],[np.float64(0.14666666666666667)],[1],[0],[0],[1.0227584159874823],['target'],50,0,50,0,92.41193249999196,,5,92.40558112500003,92.41193249999196,92.41193249999196,0.010186125000473112,93.42840908400831,[np.float64(0.14833333333333334)],[np.float64(0.14666666666666667)],[1],[0],[0],[1.0227584159874823],['target'],5,001,2025-09-28_17h09.12.992,Visual Search Experiment,,2025.1.1,None,2025-09-28 17h09.23.371372 +0530,
51,0,51,[np.float64(-0.24)],[np.float64(-0.2)],[1],[0],[0],[1.5798039580113254],['target'],51,0,51,0,93.4570607090136,,10,93.44856320900726,93.4570607090136,93.4570607090136,0.019969249988207594,95.02840641699731,[np.float64(-0.24)],[np.float64(-0.2)],[1],[0],[0],[1.5798039580113254],['target'],5,001,2025-09-28_17h09.12.992,Visual Search Experiment,,2025.1.1,None,2025-09-28 17h09.23.371372 +0530,
52,0,52,[np.float64(0.30333333333333334)],[np.float64(0.48)],[1],[0],[0],[7.299996708985418],['target'],52,0,52,0,95.05297208399861,,10,95.04595925001195,95.05297208399861,95.05297208399861,0.017402541998308152,102.34600049999426,[np.float64(0.30333333333333334)],[np.float64(0.48)],[1],[0],[0],[7.299996708985418],['target'],5,001,2025-09-28_17h09.12.992,Visual Search Experiment,,2025.1.1,None,2025-09-28 17h09.23.371372 +0530,
53,0,53,[np.float64(0.10333333333333333)],[np.float64(0.13833333333333334)],[1],[0],[0],[1.220740749995457],['target'],53,0,53,0,102.36371395899914,,5,102.35742000001483,102.36371395899914,102.36371395899914,0.011249833973124623,103.57823874999303,[np.float64(0.10333333333333333)],[np.float64(0.13833333333333334)],[1],[0],[0],[1.220740749995457],['target'],5,001,2025-09-28_17h09.12.992,Visual Search Experiment,,2025.1.1,None,2025-09-28 17h09.23.371372 +0530,
54,0,54,[np.float64(-0.23166666666666666)],[np.float64(-0.24666666666666667)],[1],[0],[0],[2.8120655420061667],['target'],54,0,54,0,103.6071159169951,,10,103.59917566701188,103.6071159169951,103.6071159169951,0.020753165998030454,106.4112793749955,[np.float64(-0.23166666666666666)],[np.float64(-0.24666666666666667)],[1],[0],[0],[2.8120655420061667],['target'],5,001,2025-09-28_17h09.12.992,Visual Search Experiment,,2025.1.1,None,2025-09-28 17h09.23.371372 +0530,
55,0,55,[np.float64(0.175)],[np.float64(0.3283333333333333)],[1],[0],[0],[1.6658674999780487],['target'],55,0,55,0,106.4368066250172,,10,106.42928633399424,106.4368066250172,106.4368066250172,0.017838208004832268,108.0952005420113,[np.float64(0.175)],[np.float64(0.3283333333333333)],[1],[0],[0],[1.6658674999780487],['target'],5,001,2025-09-28_17h09.12.992,Visual Search Experiment,,2025.1.1,None,2025-09-28 17h09.23.371372 +0530,
56,0,56,[np.float64(-0.135)],[np.float64(0.3883333333333333)],[1],[0],[0],[1.5055921250022948],['target'],56,0,56,0,108.11206166699412,,5,108.10578604199691,108.11206166699412,108.11206166699412,0.010417332989163697,109.61142891700729,[np.float64(-0.135)],[np.float64(0.3883333333333333)],[1],[0],[0],[1.5055921250022948],['target'],5,001,2025-09-28_17h09.12.992,Visual Search Experiment,,2025.1.1,None,2025-09-28 17h09.23.371372 +0530,
57,0,57,[np.float64(0.20833333333333334)],[np.float64(-0.43166666666666664)],[1],[0],[0],[1.389929041994037],['target'],57,0,57,0,109.628961334005,,5,109.62268929200945,109.628961334005,109.628961334005,0.011122958996566013,111.01268579199677,[np.float64(0.20833333333333334)],[np.float64(-0.43166666666666664)],[1],[0],[0],[1.389929041994037],['target'],5,001,2025-09-28_17h09.12.992,Visual Search Experiment,,2025.1.1,None,2025-09-28 17h09.23.371372 +0530,
58,0,58,[np.float64(0.39)],[np.float64(-0.4066666666666667)],[1],[0],[0],[4.561148375010816],['target'],58,0,58,0,111.04278041701764,,10,111.0339474590146,111.04278041701764,111.04278041701764,0.021068374975584447,115.5951398750185,[np.float64(0.39)],[np.float64(-0.4066666666666667)],[1],[0],[0],[4.561148375010816],['target'],5,001,2025-09-28_17h09.12.992,Visual Search Experiment,,2025.1.1,None,2025-09-28 17h09.23.371372 +0530,
59,0,59,[np.float64(0.16833333333333333)],[np.float64(-0.28833333333333333)],[1],[0],[0],[1.2887458330078516],['target'],59,0,59,0,115.61253312500776,,5,115.60608166700695,115.61253312500776,115.61253312500776,0.01077612501103431,116.89487525000004,[np.float64(0.16833333333333333)],[np.float64(-0.28833333333333333)],[1],[0],[0],[1.2887458330078516],['target'],5,001,2025-09-28_17h09.12.992,Visual Search Experiment,,2025.1.1,None,2025-09-28 17h09.23.371372 +0530,
60,0,60,[np.float64(-0.07)],[np.float64(0.055)],[1],[0],[0],[2.0734128750045784],['target'],60,0,60,0,116.91186625001137,,5,116.90569895901717,116.91186625001137,116.91186625001137,0.01068883400876075,118.97917383399908,[np.float64(-0.07)],[np.float64(0.055)],[1],[0],[0],[2.0734128750045784],['target'],5,001,2025-09-28_17h09.12.992,Visual Search Experiment,,2025.1.1,None,2025-09-28 17h09.23.371372 +0530,
61,0,61,[np.float64(-0.19)],[np.float64(-0.20166666666666666)],[1],[0],[0],[1.8857155829900876],['target'],61,0,61,0,118.99945945900981,,5,118.9924400000018,118.99945945900981,118.99945945900981,0.01309220798430033,120.87821320901276,[np.float64(-0.19)],[np.float64(-0.20166666666666666)],[1],[0],[0],[1.8857155829900876],['target'],5,001,2025-09-28_17h09.12.992,Visual Search Experiment,,2025.1.1,None,2025-09-28 17h09.23.371372 +0530,
62,0,62,[np.float64(0.17333333333333334)],[np.float64(0.195)],[1],[0],[0],[1.5464222499867901],['target'],62,0,62,0,120.90761250001378,,10,120.89870725001674,120.90761250001378,120.90761250001378,0.02032058298937045,122.44517241700669,[np.float64(0.17333333333333334)],[np.float64(0.195)],[1],[0],[0],[1.5464222499867901],['target'],5,001,2025-09-28_17h09.12.992,Visual Search Experiment,,2025.1.1,None,2025-09-28 17h09.23.371372 +0530,
63,0,63,[np.float64(0.33166666666666667)],[np.float64(0.405)],[1],[0],[0],[1.189957707974827],['target'],63,0,63,0,122.46149891699315,,5,122.45517508400371,122.46149891699315,122.46149891699315,0.00982900001690723,123.64519362500869,[np.float64(0.33166666666666667)],[np.float64(0.405)],[1],[0],[0],[1.189957707974827],['target'],5,001,2025-09-28_17h09.12.992,Visual Search Experiment,,2025.1.1,None,2025-09-28 17h09.23.371372 +0530,
64,0,64,[np.float64(0.051666666666666666)],[np.float64(0.36333333333333334)],[1],[0],[0],[1.6291244169988204],['target'],64,0,64,0,123.67440370901022,,10,123.66594345899648,123.67440370901022,123.67440370901022,0.020581166027113795,125.29511129201273,[np.float64(0.051666666666666666)],[np.float64(0.36333333333333334)],[1],[0],[0],[1.6291244169988204],['target'],5,001,2025-09-28_17h09.12.992,Visual Search Experiment,,2025.1.1,None,2025-09-28 17h09.23.371372 +0530,
65,0,65,[np.float64(0.045)],[np.float64(-0.17833333333333334)],[1],[0],[0],[1.1222763329860754],['target'],65,0,65,0,125.31182216701563,,5,125.30539416699321,125.31182216701563,125.31182216701563,0.010109124996233732,126.42771816701861,[np.float64(0.045)],[np.float64(-0.17833333333333334)],[1],[0],[0],[1.1222763329860754],['target'],5,001,2025-09-28_17h09.12.992,Visual Search Experiment,,2025.1.1,None,2025-09-28 17h09.23.371372 +0530,
66,0,66,[np.float64(0.115)],[np.float64(0.3333333333333333)],[1],[0],[0],[1.7989616669947281],['target'],66,0,66,0,126.45355645901873,,10,126.44613720901543,126.45355645901873,126.45355645901873,0.018284833000507206,128.24514529199223,[np.float64(0.115)],[np.float64(0.3333333333333333)],[1],[0],[0],[1.7989616669947281],['target'],5,001,2025-09-28_17h09.12.992,Visual Search Experiment,,2025.1.1,None,2025-09-28 17h09.23.371372 +0530,
67,0,67,[np.float64(0.49166666666666664)],[np.float64(0.025)],[1],[0],[0],[2.7987894999969285],['target'],67,0,67,0,128.27065391701763,,10,128.26297837501625,128.27065391701763,128.27065391701763,0.017656459007412195,131.06181087502046,[np.float64(0.49166666666666664)],[np.float64(0.025)],[1],[0],[0],[2.7987894999969285],['target'],5,001,2025-09-28_17h09.12.992,Visual Search Experiment,,2025.1.1,None,2025-09-28 17h09.23.371372 +0530,
68,0,68,[np.float64(0.38166666666666665)],[np.float64(-0.08333333333333333)],[1],[0],[0],[0.9810783750144765],['target'],68,0,68,0,131.08817733399337,,10,131.08077591701294,131.08817733399337,131.08817733399337,0.018793417024426162,132.06191066702013,[np.float64(0.38166666666666665)],[np.float64(-0.08333333333333333)],[1],[0],[0],[0.9810783750144765],['target'],5,001,2025-09-28_17h09.12.992,Visual Search Experiment,,2025.1.1,None,2025-09-28 17h09.23.371372 +0530,
69,0,69,[np.float64(-0.3416666666666667)],[np.float64(-0.16833333333333333)],[1],[0],[0],[2.381942332984181],['target'],69,0,69,0,132.08762170901173,,10,132.08026566699846,132.08762170901173,132.08762170901173,0.018186625005910173,134.4622552920191,[np.float64(-0.3416666666666667)],[np.float64(-0.16833333333333333)],[1],[0],[0],[2.381942332984181],['target'],5,001,2025-09-28_17h09.12.992,Visual Search Experiment,,2025.1.1,None,2025-09-28 17h09.23.371372 +0530,
70,0,70,[np.float64(0.045)],[np.float64(0.18833333333333332)],[1],[0],[0],[1.4649012919981033],['target'],70,0,70,0,134.48783324999386,,10,134.48019750000094,134.48783324999386,134.48783324999386,0.017775708984117955,135.94515187499928,[np.float64(0.045)],[np.float64(0.18833333333333332)],[1],[0],[0],[1.4649012919981033],['target'],5,001,2025-09-28_17h09.12.992,Visual Search Experiment,,2025.1.1,None,2025-09-28 17h09.23.371372 +0530,
71,0,71,[np.float64(0.4)],[np.float64(0.02)],[1],[0],[0],[1.6323345830023754],['target'],71,0,71,0,135.97021729199332,,10,135.96298654199927,135.97021729199332,135.97021729199332,0.017687166982796043,137.59537837500102,[np.float64(0.4)],[np.float64(0.02)],[1],[0],[0],[1.6323345830023754],['target'],5,001,2025-09-28_17h09.12.992,Visual Search Experiment,,2025.1.1,None,2025-09-28 17h09.23.371372 +0530,
72,0,72,[np.float64(-0.22166666666666668)],[np.float64(0.4583333333333333)],[1],[0],[0],[1.6550979169842321],['target'],72,0,72,0,137.6125810840167,,5,137.6061459170014,137.6125810840167,137.6125810840167,0.01060562499333173,139.26131979201455,[np.float64(-0.22166666666666668)],[np.float64(0.4583333333333333)],[1],[0],[0],[1.6550979169842321],['target'],5,001,2025-09-28_17h09.12.992,Visual Search Experiment,,2025.1.1,None,2025-09-28 17h09.23.371372 +0530,
73,0,73,[np.float64(0.43166666666666664)],[np.float64(0.18)],[1],[0],[0],[2.395522750011878],['target'],73,0,73,0,139.29177541701938,,10,139.2828439589939,139.29177541701938,139.29177541701938,0.021340792009141296,141.6784088340064,[np.float64(0.43166666666666664)],[np.float64(0.18)],[1],[0],[0],[2.395522750011878],['target'],5,001,2025-09-28_17h09.12.992,Visual Search Experiment,,2025.1.1,None,2025-09-28 17h09.23.371372 +0530,
74,0,74,[np.float64(-0.47833333333333333)],[np.float64(-0.3383333333333333)],[1],[0],[0],[2.6153591659967788],['target'],74,0,74,0,141.7039892920002,,10,141.69628258401644,141.7039892920002,141.7039892920002,0.017699375021038577,144.3116808340128,[np.float64(-0.47833333333333333)],[np.float64(-0.3383333333333333)],[1],[0],[0],[2.6153591659967788],['target'],5,001,2025-09-28_17h09.12.992,Visual Search Experiment,,2025.1.1,None,2025-09-28 17h09.23.371372 +0530,
75,0,75,[np.float64(0.21333333333333335)],[np.float64(0.045)],[1],[0],[0],[1.2734440409985837],['target'],75,0,75,0,144.328328625008,,5,144.3216445420112,144.328328625008,144.328328625008,0.009825584013015032,145.59515108400956,[np.float64(0.21333333333333335)],[np.float64(0.045)],[1],[0],[0],[1.2734440409985837],['target'],5,001,2025-09-28_17h09.12.992,Visual Search Experiment,,2025.1.1,None,2025-09-28 17h09.23.371372 +0530,
76,0,76,[np.float64(0.041666666666666664)],[np.float64(-0.016666666666666666)],[1],[0],[0],[3.979455125023378],['target'],76,0,76,0,145.6243530420179,,10,145.6157391250017,145.6243530420179,145.6243530420179,0.020421207998879254,149.59524125000462,[np.float64(0.041666666666666664)],[np.float64(-0.016666666666666666)],[1],[0],[0],[3.979455125023378],['target'],5,001,2025-09-28_17h09.12.992,Visual Search Experiment,,2025.1.1,None,2025-09-28 17h09.23.371372 +0530,
77,0,77,[np.float64(-0.2816666666666667)],[np.float64(-0.115)],[1],[0],[0],[2.313855250016786],['target'],77,0,77,0,149.62173970899312,,10,149.6143826250045,149.62173970899312,149.62173970899312,0.018955874984385446,151.9282753750158,[np.float64(-0.2816666666666667)],[np.float64(-0.115)],[1],[0],[0],[2.313855250016786],['target'],5,001,2025-09-28_17h09.12.992,Visual Search Experiment,,2025.1.1,None,2025-09-28 17h09.23.371372 +0530,
78,0,78,[np.float64(-0.425)],[np.float64(-0.1)],[1],[0],[0],[1.7992689590028021],['target'],78,0,78,0,151.95348154200474,,10,151.9459674170066,151.95348154200474,151.95348154200474,0.017544041998917237,153.7452726670017,[np.float64(-0.425)],[np.float64(-0.1)],[1],[0],[0],[1.7992689590028021],['target'],5,001,2025-09-28_17h09.12.992,Visual Search Experiment,,2025.1.1,None,2025-09-28 17h09.23.371372 +0530,
79,0,79,[np.float64(-0.03666666666666667)],[np.float64(-0.45)],[1],[0],[0],[1.532640834018821],['target'],79,0,79,0,153.76964070901158,,10,153.7626771670184,153.76964070901158,153.76964070901158,0.017256583989365026,155.29538066699752,[np.float64(-0.03666666666666667)],[np.float64(-0.45)],[1],[0],[0],[1.532640834018821],['target'],5,001,2025-09-28_17h09.12.992,Visual Search Experiment,,2025.1.1,None,2025-09-28 17h09.23.371372 +0530,
80,0,80,[np.float64(0.21833333333333332)],[np.float64(-0.225)],[1],[0],[0],[1.2148925829969812],['target'],80,0,80,0,155.3202776669932,,10,155.31284520900226,155.3202776669932,155.3202776669932,0.01732462499057874,156.52777537499787,[np.float64(0.21833333333333332)],[np.float64(-0.225)],[1],[0],[0],[1.2148925829969812],['target'],5,001,2025-09-28_17h09.12.992,Visual Search Experiment,,2025.1.1,None,2025-09-28 17h09.23.371372 +0530,
81,0,81,[np.float64(0.09666666666666666)],[np.float64(-0.2733333333333333)],[1],[0],[0],[1.123200292000547],['target'],81,0,81,0,156.54422620899277,,5,156.53754966700217,156.54422620899277,156.54422620899277,0.00963758400757797,157.66081512501114,[np.float64(0.09666666666666666)],[np.float64(-0.2733333333333333)],[1],[0],[0],[1.123200292000547],['target'],5,001,2025-09-28_17h09.12.992,Visual Search Experiment,,2025.1.1,None,2025-09-28 17h09.23.371372 +0530,
82,0,82,[np.float64(-0.3933333333333333)],[np.float64(-0.3433333333333333)],[1],[0],[0],[1.7717682080110535],['target'],82,0,82,0,157.67931008400046,,5,157.67252737501985,157.67931008400046,157.67931008400046,0.011569458001758903,159.44435299999896,[np.float64(-0.3933333333333333)],[np.float64(-0.3433333333333333)],[1],[0],[0],[1.7717682080110535],['target'],5,001,2025-09-28_17h09.12.992,Visual Search Experiment,,2025.1.1,None,2025-09-28 17h09.23.371372 +0530,
83,0,83,[np.float64(-0.20166666666666666)],[np.float64(-0.155)],[1],[0],[0],[1.8811747500149067],['target'],83,0,83,0,159.47147033401416,,10,159.46347600000445,159.47147033401416,159.47147033401416,0.018985542003065348,161.344695125008,[np.float64(-0.20166666666666666)],[np.float64(-0.155)],[1],[0],[0],[1.8811747500149067],['target'],5,001,2025-09-28_17h09.12.992,Visual Search Experiment,,2025.1.1,None,2025-09-28 17h09.23.371372 +0530,
84,0,84,[np.float64(-0.415)],[np.float64(-0.44)],[1],[0],[0],[2.731827000010526],['target'],84,0,84,0,161.37008879199857,,10,161.36275529200793,161.37008879199857,161.37008879199857,0.017883166001411155,164.09462741701282,[np.float64(-0.415)],[np.float64(-0.44)],[1],[0],[0],[2.731827000010526],['target'],5,001,2025-09-28_17h09.12.992,Visual Search Experiment,,2025.1.1,None,2025-09-28 17h09.23.371372 +0530,
85,0,85,[np.float64(-0.355)],[np.float64(-0.4)],[1],[0],[0],[1.5238004159764387],['target'],85,0,85,0,164.11049883399392,,5,164.10434287501266,164.11049883399392,164.11049883399392,0.009572708018822595,165.62819320900599,[np.float64(-0.355)],[np.float64(-0.4)],[1],[0],[0],[1.5238004159764387],['target'],5,001,2025-09-28_17h09.12.992,Visual Search Experiment,,2025.1.1,None,2025-09-28 17h09.23.371372 +0530,
86,0,86,[np.float64(-0.4216666666666667)],[np.float64(-0.011666666666666667)],[1],[0],[0],[1.2642776659922674],['target'],86,0,86,0,165.6559191250126,,10,165.64760145900073,165.6559191250126,165.6559191250126,0.01927145800436847,166.91191883399733,[np.float64(-0.4216666666666667)],[np.float64(-0.011666666666666667)],[1],[0],[0],[1.2642776659922674],['target'],5,001,2025-09-28_17h09.12.992,Visual Search Experiment,,2025.1.1,None,2025-09-28 17h09.23.371372 +0530,
87,0,87,[np.float64(-0.005)],[np.float64(0.185)],[1],[0],[0],[1.2481360829842743],['target'],87,0,87,0,166.9379942920059,,10,166.93053574999794,166.9379942920059,166.9379942920059,0.018441209016600624,168.1787217920064,[np.float64(-0.005)],[np.float64(0.185)],[1],[0],[0],[1.2481360829842743],['target'],5,001,2025-09-28_17h09.12.992,Visual Search Experiment,,2025.1.1,None,2025-09-28 17h09.23.371372 +0530,
88,0,88,[np.float64(0.07)],[np.float64(-0.475)],[1],[0],[0],[1.7880516249861103],['target'],88,0,88,0,168.19631954201031,,5,168.18991124999593,168.19631954201031,168.19631954201031,0.01101745801861398,169.9780099170166,[np.float64(0.07)],[np.float64(-0.475)],[1],[0],[0],[1.7880516249861103],['target'],5,001,2025-09-28_17h09.12.992,Visual Search Experiment,,2025.1.1,None,2025-09-28 17h09.23.371372 +0530,
89,0,89,[np.float64(0.24)],[np.float64(-0.19833333333333333)],[1],[0],[0],[1.363821667007869],['target'],89,0,89,0,170.00598229200114,,10,169.9976233339985,170.00598229200114,170.00598229200114,0.019468832993879914,171.3614886669966,[np.float64(0.24)],[np.float64(-0.19833333333333333)],[1],[0],[0],[1.363821667007869],['target'],5,001,2025-09-28_17h09.12.992,Visual Search Experiment,,2025.1.1,None,2025-09-28 17h09.23.371372 +0530,
90,0,90,[np.float64(-0.49)],[np.float64(-0.18833333333333332)],[1],[0],[0],[1.3402842089999467],['target'],90,0,90,0,171.37841999999364,,5,171.3719897500123,171.37841999999364,171.37841999999364,0.01033783401362598,172.7123404169979,[np.float64(-0.49)],[np.float64(-0.18833333333333332)],[1],[0],[0],[1.3402842089999467],['target'],5,001,2025-09-28_17h09.12.992,Visual Search Experiment,,2025.1.1,None,2025-09-28 17h09.23.371372 +0530,
91,0,91,[np.float64(0.12166666666666667)],[np.float64(-0.2733333333333333)],[1],[0],[0],[1.260249582992401],['target'],91,0,91,0,172.74291608401109,,10,172.73389287499595,172.74291608401109,172.74291608401109,0.021374208998167887,173.99417099999846,[np.float64(0.12166666666666667)],[np.float64(-0.2733333333333333)],[1],[0],[0],[1.260249582992401],['target'],5,001,2025-09-28_17h09.12.992,Visual Search Experiment,,2025.1.1,None,2025-09-28 17h09.23.371372 +0530,
92,0,92,[np.float64(-0.33666666666666667)],[np.float64(0.40166666666666667)],[1],[0],[0],[4.2337256250029895],['target'],92,0,92,0,174.0182656669931,,10,174.0112773340079,174.0182656669931,174.0182656669931,0.016970917000435293,178.24504445900675,[np.float64(-0.33666666666666667)],[np.float64(0.40166666666666667)],[1],[0],[0],[4.2337256250029895],['target'],5,001,2025-09-28_17h09.12.992,Visual Search Experiment,,2025.1.1,None,2025-09-28 17h09.23.371372 +0530,
93,0,93,[np.float64(0.43166666666666664)],[np.float64(0.39166666666666666)],[1],[0],[0],[1.9318077500211075],['target'],93,0,93,0,178.2710145000019,,10,178.26347925001755,178.2710145000019,178.2710145000019,0.01828641601605341,180.195324291999,[np.float64(0.43166666666666664)],[np.float64(0.39166666666666666)],[1],[0],[0],[1.9318077500211075],['target'],5,001,2025-09-28_17h09.12.992,Visual Search Experiment,,2025.1.1,None,2025-09-28 17h09.23.371372 +0530,
94,0,94,[np.float64(-0.36666666666666664)],[np.float64(0.14333333333333334)],[1],[0],[0],[1.8490427079959773],['target'],94,0,94,0,180.2202914590016,,10,180.21295920902048,180.2202914590016,180.2202914590016,0.01748583299922757,182.06204841699218,[np.float64(-0.36666666666666664)],[np.float64(0.14333333333333334)],[1],[0],[0],[1.8490427079959773],['target'],5,001,2025-09-28_17h09.12.992,Visual Search Experiment,,2025.1.1,None,2025-09-28 17h09.23.371372 +0530,
95,0,95,[np.float64(-0.02)],[np.float64(0.3016666666666667)],[1],[0],[0],[1.0314658749848604],['target'],95,0,95,0,182.08808845901513,,10,182.08044983400032,182.08808845901513,182.08808845901513,0.018226874992251396,183.1119592920004,[np.float64(-0.02)],[np.float64(0.3016666666666667)],[1],[0],[0],[1.0314658749848604],['target'],5,001,2025-09-28_17h09.12.992,Visual Search Experiment,,2025.1.1,None,2025-09-28 17h09.23.371372 +0530,
96,0,96,[np.float64(-0.41333333333333333)],[np.float64(0.16666666666666666)],[1],[0],[0],[1.3156475420109928],['target'],96,0,96,0,183.13712383399252,,10,183.12987037500716,183.13712383399252,183.13712383399252,0.01774874998955056,184.4455586670083,[np.float64(-0.41333333333333333)],[np.float64(0.16666666666666666)],[1],[0],[0],[1.3156475420109928],['target'],5,001,2025-09-28_17h09.12.992,Visual Search Experiment,,2025.1.1,None,2025-09-28 17h09.23.371372 +0530,
97,0,97,[np.float64(-0.355)],[np.float64(0.25833333333333336)],[1],[0],[0],[0.9481123750156257],['target'],97,0,97,0,184.47073324999656,,10,184.463442459004,184.47073324999656,184.47073324999656,0.017729582992615178,185.41162183400593,[np.float64(-0.355)],[np.float64(0.25833333333333336)],[1],[0],[0],[0.9481123750156257],['target'],5,001,2025-09-28_17h09.12.992,Visual Search Experiment,,2025.1.1,None,2025-09-28 17h09.23.371372 +0530,
98,0,98,[np.float64(-0.48)],[np.float64(-0.425)],[1],[0],[0],[1.3556749170238618],['target'],98,0,98,0,185.42909970899927,,5,185.42270554200513,185.42909970899927,185.42909970899927,0.010920750006334856,186.7784337500052,[np.float64(-0.48)],[np.float64(-0.425)],[1],[0],[0],[1.3556749170238618],['target'],5,001,2025-09-28_17h09.12.992,Visual Search Experiment,,2025.1.1,None,2025-09-28 17h09.23.371372 +0530,
99,0,99,[np.float64(0.46)],[np.float64(0.295)],[1],[0],[0],[2.0970832080056425],['target'],99,0,99,0,186.80576287501026,,10,186.7980568750063,186.80576287501026,186.80576287501026,0.019483250012854114,188.89517441700445,[np.float64(0.46)],[np.float64(0.295)],[1],[0],[0],[2.0970832080056425],['target'],5,001,2025-09-28_17h09.12.992,Visual Search Experiment,,2025.1.1,None,2025-09-28 17h09.23.371372 +0530,
100,0,100,[np.float64(0.17)],[np.float64(0.37166666666666665)],[1],[0],[0],[1.1899023329897318],['target'],100,0,100,0,188.91179495901451,,5,188.90519816702,188.91179495901451,188.91179495901451,0.009888832981232554,190.09518595901318,[np.float64(0.17)],[np.float64(0.37166666666666665)],[1],[0],[0],[1.1899023329897318],['target'],5,001,2025-09-28_17h09.12.992,Visual Search Experiment,,2025.1.1,None,2025-09-28 17h09.23.371372 +0530,
101,0,101,[np.float64(-0.31)],[np.float64(0.10666666666666667)],[1],[0],[0],[1.8965039169997908],['target'],101,0,101,0,190.12338437500875,,10,190.11550337501103,190.12338437500875,190.12338437500875,0.020136124978307635,192.0120418750157,[np.float64(-0.31)],[np.float64(0.10666666666666667)],[1],[0],[0],[1.8965039169997908],['target'],5,001,2025-09-28_17h09.12.992,Visual Search Experiment,,2025.1.1,None,2025-09-28 17h09.23.371372 +0530,
102,0,102,[np.float64(0.045)],[np.float64(0.11166666666666666)],[1],[0],[0],[0.9816658749768976],['target'],102,0,102,0,192.0373867090093,,10,192.02972358401166,192.0373867090093,192.0373867090093,0.01754429200082086,193.01143245899584,[np.float64(0.045)],[np.float64(0.11166666666666666)],[1],[0],[0],[0.9816658749768976],['target'],5,001,2025-09-28_17h09.12.992,Visual Search Experiment,,2025.1.1,None,2025-09-28 17h09.23.371372 +0530,
103,0,103,[np.float64(0.3466666666666667)],[np.float64(-0.28833333333333333)],[1],[0],[0],[1.4563383749919012],['target'],103,0,103,0,193.02849666701513,,5,193.02216912500444,193.02849666701513,193.02849666701513,0.010571458988124505,194.47857937501976,[np.float64(0.3466666666666667)],[np.float64(-0.28833333333333333)],[1],[0],[0],[1.4563383749919012],['target'],5,001,2025-09-28_17h09.12.992,Visual Search Experiment,,2025.1.1,None,2025-09-28 17h09.23.371372 +0530,
104,0,104,[np.float64(0.22)],[np.float64(0.07)],[1],[0],[0],[1.1945715420006309],['target'],104,0,104,0,194.50805249999394,,10,194.49988570899586,194.50805249999394,194.50805249999394,0.021128541004145518,195.6944923340052,[np.float64(0.22)],[np.float64(0.07)],[1],[0],[0],[1.1945715420006309],['target'],5,001,2025-09-28_17h09.12.992,Visual Search Experiment,,2025.1.1,None,2025-09-28 17h09.23.371372 +0530,
105,0,105,[np.float64(-0.51)],[np.float64(0.16166666666666665)],[1],[0],[0],[1.2565424590138718],['target'],105,0,105,0,195.71097908401862,,5,195.70441850001225,195.71097908401862,195.71097908401862,0.00978749999194406,196.96101079200162,[np.float64(-0.51)],[np.float64(0.16166666666666665)],[1],[0],[0],[1.2565424590138718],['target'],5,001,2025-09-28_17h09.12.992,Visual Search Experiment,,2025.1.1,None,2025-09-28 17h09.23.371372 +0530,
106,0,106,[np.float64(0.1)],[np.float64(0.0016666666666666668)],[1],[0],[0],[2.4310931249929126],['target'],106,0,106,0,196.98944604201824,,10,196.98055970901623,196.98944604201824,196.98944604201824,0.019417708972468972,199.41168679200928,[np.float64(0.1)],[np.float64(0.0016666666666666668)],[1],[0],[0],[2.4310931249929126],['target'],5,001,2025-09-28_17h09.12.992,Visual Search Experiment,,2025.1.1,None,2025-09-28 17h09.23.371372 +0530,
107,0,107,[np.float64(-0.02)],[np.float64(-0.17)],[1],[0],[0],[1.4821551670029294],['target'],107,0,107,0,199.43666358399787,,10,199.42945633400814,199.43666358399787,199.43666358399787,0.017620833998080343,200.91165650001494,[np.float64(-0.02)],[np.float64(-0.17)],[1],[0],[0],[1.4821551670029294],['target'],5,001,2025-09-28_17h09.12.992,Visual Search Experiment,,2025.1.1,None,2025-09-28 17h09.23.371372 +0530,
108,0,108,[np.float64(-0.4)],[np.float64(-0.43)],[1],[0],[0],[1.482296292000683],['target'],108,0,108,0,200.93617166701006,,10,200.92904179199832,200.93617166701006,200.93617166701006,0.01723741600289941,202.4113826249959,[np.float64(-0.4)],[np.float64(-0.43)],[1],[0],[0],[1.482296292000683],['target'],5,001,2025-09-28_17h09.12.992,Visual Search Experiment,,2025.1.1,None,2025-09-28 17h09.23.371372 +0530,
109,0,109,[np.float64(-0.12666666666666668)],[np.float64(-0.14666666666666667)],[1],[0],[0],[0.9487091659975704],['target'],109,0,109,0,202.43678283400368,,10,202.42956662501092,202.43678283400368,202.43678283400368,0.01804225001251325,203.37831095900037,[np.float64(-0.12666666666666668)],[np.float64(-0.14666666666666667)],[1],[0],[0],[0.9487091659975704],['target'],5,001,2025-09-28_17h09.12.992,Visual Search Experiment,,2025.1.1,None,2025-09-28 17h09.23.371372 +0530,
110,0,110,[np.float64(0.17666666666666667)],[np.float64(0.405)],[1],[0],[0],[1.3825770000112243],['target'],110,0,110,0,203.40355287501006,,10,203.3965073750005,203.40355287501006,203.40355287501006,0.01804970798548311,204.7791307090083,[np.float64(0.17666666666666667)],[np.float64(0.405)],[1],[0],[0],[1.3825770000112243],['target'],5,001,2025-09-28_17h09.12.992,Visual Search Experiment,,2025.1.1,None,2025-09-28 17h09.23.371372 +0530,
111,0,111,[np.float64(0.32166666666666666)],[np.float64(-0.225)],[1],[0],[0],[1.7305519999936223],['target'],111,0,111,0,204.80458133399952,,10,204.79726225000923,204.80458133399952,204.80458133399952,0.017952624999452382,206.5278561669984,[np.float64(0.32166666666666666)],[np.float64(-0.225)],[1],[0],[0],[1.7305519999936223],['target'],5,001,2025-09-28_17h09.12.992,Visual Search Experiment,,2025.1.1,None,2025-09-28 17h09.23.371372 +0530,
112,0,112,[np.float64(-0.03166666666666667)],[np.float64(0.15333333333333332)],[1],[0],[0],[2.0160430000105407],['target'],112,0,112,0,206.5523660420149,,10,206.5452331250126,206.5523660420149,206.5523660420149,0.01723741600289941,208.56132066700957,[np.float64(-0.03166666666666667)],[np.float64(0.15333333333333332)],[1],[0],[0],[2.0160430000105407],['target'],5,001,2025-09-28_17h09.12.992,Visual Search Experiment,,2025.1.1,None,2025-09-28 17h09.23.371372 +0530,
113,0,113,[np.float64(-0.09333333333333334)],[np.float64(-0.3416666666666667)],[1],[0],[0],[1.6900853750121314],['target'],113,0,113,0,208.57757012499496,,5,208.57120395899983,208.57757012499496,208.57757012499496,0.009718041983433068,210.2613527920039,[np.float64(-0.09333333333333334)],[np.float64(-0.3416666666666667)],[1],[0],[0],[1.6900853750121314],['target'],5,001,2025-09-28_17h09.12.992,Visual Search Experiment,,2025.1.1,None,2025-09-28 17h09.23.371372 +0530,
114,0,114,[np.float64(-0.15)],[np.float64(-0.4)],[1],[0],[0],[1.5720789580082055],['target'],114,0,114,0,210.2797867920017,,5,210.2726703340013,210.2797867920017,210.2797867920017,0.011149333004141226,211.844808541995,[np.float64(-0.15)],[np.float64(-0.4)],[1],[0],[0],[1.5720789580082055],['target'],5,001,2025-09-28_17h09.12.992,Visual Search Experiment,,2025.1.1,None,2025-09-28 17h09.23.371372 +0530,
115,0,115,[np.float64(-0.48)],[np.float64(-0.14333333333333334)],[1],[0],[0],[2.3620087500021327],['target'],115,0,115,0,211.87472491699737,,10,211.86611433399958,211.87472491699737,211.87472491699737,0.021143582998774946,214.2281680419983,[np.float64(-0.48)],[np.float64(-0.14333333333333334)],[1],[0],[0],[2.3620087500021327],['target'],5,001,2025-09-28_17h09.12.992,Visual Search Experiment,,2025.1.1,None,2025-09-28 17h09.23.371372 +0530,
116,0,116,[np.float64(-0.39666666666666667)],[np.float64(-0.12666666666666668)],[1],[0],[0],[0.6895839170028921],['target'],116,0,116,0,214.24517612499767,,5,214.2389317920024,214.24517612499767,214.24517612499767,0.010599041997920722,214.92858329199953,[np.float64(-0.39666666666666667)],[np.float64(-0.12666666666666668)],[1],[0],[0],[0.6895839170028921],['target'],5,001,2025-09-28_17h09.12.992,Visual Search Experiment,,2025.1.1,None,2025-09-28 17h09.23.371372 +0530,
117,0,117,[np.float64(0.415)],[np.float64(-0.48333333333333334)],[1],[0],[0],[2.354317874996923],['target'],117,0,117,0,214.9471434589941,,5,214.94043950000196,214.9471434589941,214.9471434589941,0.011673791013890877,217.2948395840067,[np.float64(0.415)],[np.float64(-0.48333333333333334)],[1],[0],[0],[2.354317874996923],['target'],5,001,2025-09-28_17h09.12.992,Visual Search Experiment,,2025.1.1,None,2025-09-28 17h09.23.371372 +0530,
118,0,118,[np.float64(-0.09333333333333334)],[np.float64(0.39)],[1],[0],[0],[1.9622724579821806],['target'],118,0,118,0,217.3232092919934,,10,217.31529633401078,217.3232092919934,217.3232092919934,0.02025141697959043,219.27760429200134,[np.float64(-0.09333333333333334)],[np.float64(0.39)],[1],[0],[0],[1.9622724579821806],['target'],5,001,2025-09-28_17h09.12.992,Visual Search Experiment,,2025.1.1,None,2025-09-28 17h09.23.371372 +0530,
119,0,119,[np.float64(0.315)],[np.float64(-0.43333333333333335)],[1],[0],[0],[1.9747610000194982],['target'],119,0,119,0,219.29316733399173,,5,219.28700716700405,219.29316733399173,219.29316733399173,0.009257791010895744,221.26183666699217,[np.float64(0.315)],[np.float64(-0.43333333333333335)],[1],[0],[0],[1.9747610000194982],['target'],5,001,2025-09-28_17h09.12.992,Visual Search Experiment,,2025.1.1,None,2025-09-28 17h09.23.371372 +0530,
120,0,120,[np.float64(0.39666666666666667)],[np.float64(-0.18)],[1],[0],[0],[0.8038299169857055],['target'],120,0,120,0,221.28117687499616,,5,221.2740127920115,221.28117687499616,221.28117687499616,0.01199575001373887,222.07790379200014,[np.float64(0.39666666666666667)],[np.float64(-0.18)],[1],[0],[0],[0.8038299169857055],['target'],5,001,2025-09-28_17h09.12.992,Visual Search Experiment,,2025.1.1,None,2025-09-28 17h09.23.371372 +0530,
121,0,121,[np.float64(-0.465)],[np.float64(0.23)],[1],[0],[0],[1.3206755830033217],[None],121,0,121,0,222.09726770900306,,5,222.0905875840108,222.09726770900306,222.09726770900306,0.012510333996033296,223.4113337500021,[np.float64(-0.465)],[np.float64(0.23)],[1],[0],[0],[1.3206755830033217],[None],5,001,2025-09-28_17h09.12.992,Visual Search Experiment,,2025.1.1,None,2025-09-28 17h09.23.371372 +0530,
122,0,122,[np.float64(-0.46166666666666667)],[np.float64(0.2633333333333333)],[1],[0],[0],[0.6884603330108803],['target'],122,0,122,0,223.43087795900647,,5,223.4236506250163,223.43087795900647,223.43087795900647,0.012155167001765221,224.11216791701736,[np.float64(-0.46166666666666667)],[np.float64(0.2633333333333333)],[1],[0],[0],[0.6884603330108803],['target'],5,001,2025-09-28_17h09.12.992,Visual Search Experiment,,2025.1.1,None,2025-09-28 17h09.23.371372 +0530,
123,0,123,[np.float64(0.4583333333333333)],[np.float64(0.445)],[1],[0],[0],[2.6794804169912823],['target'],123,0,123,0,224.14021970899194,,10,224.13184758400894,224.14021970899194,224.14021970899194,0.01953295900602825,226.8113652500033,[np.float64(0.4583333333333333)],[np.float64(0.445)],[1],[0],[0],[2.6794804169912823],['target'],5,001,2025-09-28_17h09.12.992,Visual Search Experiment,,2025.1.1,None,2025-09-28 17h09.23.371372 +0530,
124,0,124,[np.float64(0.3)],[np.float64(0.48)],[1],[0],[0],[4.665846957999747],['target'],124,0,124,0,226.83649775001686,,10,226.82920304199797,226.83649775001686,226.83649775001686,0.017682208999758586,231.49509837501682,[np.float64(0.3)],[np.float64(0.48)],[1],[0],[0],[4.665846957999747],['target'],5,001,2025-09-28_17h09.12.992,Visual Search Experiment,,2025.1.1,None,2025-09-28 17h09.23.371372 +0530,
125,0,125,[np.float64(0.26166666666666666)],[np.float64(-0.19666666666666666)],[1],[0],[0],[1.3889975830097683],['target'],125,0,125,0,231.51203466701554,,5,231.50560158400913,231.51203466701554,231.51203466701554,0.010341374989366159,232.89466512500076,[np.float64(0.26166666666666666)],[np.float64(-0.19666666666666666)],[1],[0],[0],[1.3889975830097683],['target'],5,001,2025-09-28_17h09.12.992,Visual Search Experiment,,2025.1.1,None,2025-09-28 17h09.23.371372 +0530,
126,0,126,[np.float64(0.37)],[np.float64(0.25666666666666665)],[1],[0],[0],[1.3377526249969378],['target'],126,0,126,0,232.91350383401732,,5,232.90674629199202,232.91350383401732,232.91350383401732,0.01189612501184456,234.24455941701308,[np.float64(0.37)],[np.float64(0.25666666666666665)],[1],[0],[0],[1.3377526249969378],['target'],5,001,2025-09-28_17h09.12.992,Visual Search Experiment,,2025.1.1,None,2025-09-28 17h09.23.371372 +0530,
127,0,127,[np.float64(0.18333333333333332)],[np.float64(-0.3283333333333333)],[1],[0],[0],[1.7452891250140965],['target'],127,0,127,0,234.27529170899652,,10,234.26631487501436,234.27529170899652,234.27529170899652,0.021588875009911135,236.0116389169998,[np.float64(0.18333333333333332)],[np.float64(-0.3283333333333333)],[1],[0],[0],[1.7452891250140965],['target'],5,001,2025-09-28_17h09.12.992,Visual Search Experiment,,2025.1.1,None,2025-09-28 17h09.23.371372 +0530,
128,0,128,[np.float64(-0.04833333333333333)],[np.float64(0.15833333333333333)],[1],[0],[0],[1.6907036670017987],['target'],128,0,128,0,236.02766912500374,,5,236.0213077920198,236.02766912500374,236.02766912500374,0.009526667010504752,237.7120832920191,[np.float64(-0.04833333333333333)],[np.float64(0.15833333333333333)],[1],[0],[0],[1.6907036670017987],['target'],5,001,2025-09-28_17h09.12.992,Visual Search Experiment,,2025.1.1,None,2025-09-28 17h09.23.371372 +0530,
129,0,129,[np.float64(-0.3383333333333333)],[np.float64(-0.04666666666666667)],[1],[0],[0],[3.628704500006279],['target'],129,0,129,0,237.7423516669951,,10,237.73315287500736,237.7423516669951,237.7423516669951,0.020880208001472056,241.3618988340022,[np.float64(-0.3383333333333333)],[np.float64(-0.04666666666666667)],[1],[0],[0],[3.628704500006279],['target'],5,001,2025-09-28_17h09.12.992,Visual Search Experiment,,2025.1.1,None,2025-09-28 17h09.23.371372 +0530,
130,0,130,[np.float64(0.07166666666666667)],[np.float64(-0.335)],[1],[0],[0],[1.5707703749940265],['target'],130,0,130,0,241.37909695901908,,5,241.37262304199976,241.37909695901908,241.37909695901908,0.010576499975286424,242.94342383401818,[np.float64(0.07166666666666667)],[np.float64(-0.335)],[1],[0],[0],[1.5707703749940265],['target'],5,001,2025-09-28_17h09.12.992,Visual Search Experiment,,2025.1.1,None,2025-09-28 17h09.23.371372 +0530,
131,0,131,[np.float64(0.1)],[np.float64(-0.42833333333333334)],[1],[0],[0],[1.8486294579925016],['target'],131,0,131,0,242.9693947090127,,10,242.96171000000322,242.9693947090127,242.9693947090127,0.018150583025999367,244.8103754170006,[np.float64(0.1)],[np.float64(-0.42833333333333334)],[1],[0],[0],[1.8486294579925016],['target'],5,001,2025-09-28_17h09.12.992,Visual Search Experiment,,2025.1.1,None,2025-09-28 17h09.23.371372 +0530,
132,0,132,[np.float64(-0.02666666666666667)],[np.float64(0.035)],[1],[0],[0],[3.733794624975417],[None],132,0,132,0,244.83508416701807,,10,244.82782866701018,244.83508416701807,244.83508416701807,0.017315625009359792,248.56167441699654,[np.float64(-0.02666666666666667)],[np.float64(0.035)],[1],[0],[0],[3.733794624975417],[None],5,001,2025-09-28_17h09.12.992,Visual Search Experiment,,2025.1.1,None,2025-09-28 17h09.23.371372 +0530,
133,0,133,[np.float64(-0.06666666666666667)],[np.float64(-0.245)],[1],[0],[0],[1.3651512500073295],['target'],133,0,133,0,248.58682908400078,,10,248.57936862501083,248.58682908400078,248.58682908400078,0.01754787500249222,249.94455637500505,[np.float64(-0.06666666666666667)],[np.float64(-0.245)],[1],[0],[0],[1.3651512500073295],['target'],5,001,2025-09-28_17h09.12.992,Visual Search Experiment,,2025.1.1,None,2025-09-28 17h09.23.371372 +0530,
134,0,134,[np.float64(0.2833333333333333)],[np.float64(-0.39666666666666667)],[1],[0],[0],[1.1061995000054594],['target'],134,0,134,0,249.9611635839974,,5,249.9546614169958,249.9611635839974,249.9611635839974,0.009970207989681512,251.06091437500436,[np.float64(0.2833333333333333)],[np.float64(-0.39666666666666667)],[1],[0],[0],[1.1061995000054594],['target'],5,001,2025-09-28_17h09.12.992,Visual Search Experiment,,2025.1.1,None,2025-09-28 17h09.23.371372 +0530,
135,0,135,[np.float64(0.065)],[np.float64(0.30666666666666664)],[1],[0],[0],[2.3803544159745798],['target'],135,0,135,0,251.087820500019,,10,251.0800224590057,251.087820500019,251.087820500019,0.018967833020724356,253.46041274999152,[np.float64(0.065)],[np.float64(0.30666666666666664)],[1],[0],[0],[2.3803544159745798],['target'],5,001,2025-09-28_17h09.12.992,Visual Search Experiment,,2025.1.1,None,2025-09-28 17h09.23.371372 +0530,
136,0,136,[np.float64(-0.205)],[np.float64(0.255)],[1],[0],[0],[1.2086184160143603],['target'],136,0,136,0,253.4747534999915,,5,253.46956508400035,253.4747534999915,253.4747534999915,0.00900391599861905,254.6782424590201,[np.float64(-0.205)],[np.float64(0.255)],[1],[0],[0],[1.2086184160143603],['target'],5,001,2025-09-28_17h09.12.992,Visual Search Experiment,,2025.1.1,None,2025-09-28 17h09.23.371372 +0530,
137,0,137,[np.float64(-0.4066666666666667)],[np.float64(0.028333333333333332)],[1],[0],[0],[1.4389950830081943],['target'],137,0,137,0,254.6965639590053,,5,254.68977608400746,254.6965639590053,254.6965639590053,0.011369166983058676,256.1288265000039,[np.float64(-0.4066666666666667)],[np.float64(0.028333333333333332)],[1],[0],[0],[1.4389950830081943],['target'],5,001,2025-09-28_17h09.12.992,Visual Search Experiment,,2025.1.1,None,2025-09-28 17h09.23.371372 +0530,
138,0,138,[np.float64(0.03833333333333333)],[np.float64(0.22166666666666668)],[1],[0],[0],[1.2019072079856414],['target'],138,0,138,0,256.1495543750061,,5,256.14257287501823,256.1495543750061,256.1495543750061,0.013578124984633178,257.34454620900215,[np.float64(0.03833333333333333)],[np.float64(0.22166666666666668)],[1],[0],[0],[1.2019072079856414],['target'],5,001,2025-09-28_17h09.12.992,Visual Search Experiment,,2025.1.1,None,2025-09-28 17h09.23.371372 +0530,
139,0,139,[np.float64(0.22)],[np.float64(-0.475)],[1],[0],[0],[1.905025249987375],['target'],139,0,139,0,257.36348904200713,,5,257.3564520840009,257.36348904200713,257.36348904200713,0.011746417003450915,259.26152850000653,[np.float64(0.22)],[np.float64(-0.475)],[1],[0],[0],[1.905025249987375],['target'],5,001,2025-09-28_17h09.12.992,Visual Search Experiment,,2025.1.1,None,2025-09-28 17h09.23.371372 +0530,
140,0,140,[np.float64(-0.435)],[np.float64(0.4116666666666667)],[1],[0],[0],[2.171209291991545],['target'],140,0,140,0,259.27947591699194,,5,259.2730892090185,259.27947591699194,259.27947591699194,0.011420167022151873,261.4443557920167,[np.float64(-0.435)],[np.float64(0.4116666666666667)],[1],[0],[0],[2.171209291991545],['target'],5,001,2025-09-28_17h09.12.992,Visual Search Experiment,,2025.1.1,None,2025-09-28 17h09.23.371372 +0530,
141,0,141,[np.float64(0.385)],[np.float64(0.31833333333333336)],[1],[0],[0],[1.5131861249974463],[None],141,0,141,0,261.4736950840161,,10,261.4651095420122,261.4736950840161,261.4736950840161,0.02058270899578929,262.97833704200457,[np.float64(0.385)],[np.float64(0.31833333333333336)],[1],[0],[0],[1.5131861249974463],[None],5,001,2025-09-28_17h09.12.992,Visual Search Experiment,,2025.1.1,None,2025-09-28 17h09.23.371372 +0530,
142,0,142,[np.float64(0.43333333333333335)],[np.float64(0.43833333333333335)],[1],[0],[0],[0.7972462080069818],[None],142,0,142,0,263.00537337499554,,10,262.99763054199866,263.00537337499554,263.00537337499554,0.01911699998890981,263.7949286249932,[np.float64(0.43333333333333335)],[np.float64(0.43833333333333335)],[1],[0],[0],[0.7972462080069818],[None],5,001,2025-09-28_17h09.12.992,Visual Search Experiment,,2025.1.1,None,2025-09-28 17h09.23.371372 +0530,
143,0,143,[np.float64(-0.21166666666666667)],[np.float64(0.3616666666666667)],[1],[0],[0],[1.0731732500134967],['target'],143,0,143,0,263.81128799999715,,5,263.8050185420143,263.81128799999715,263.81128799999715,0.00992766601848416,264.8782435420144,[np.float64(-0.21166666666666667)],[np.float64(0.3616666666666667)],[1],[0],[0],[1.0731732500134967],['target'],5,001,2025-09-28_17h09.12.992,Visual Search Experiment,,2025.1.1,None,2025-09-28 17h09.23.371372 +0530,
144,0,144,[np.float64(0.44333333333333336)],[np.float64(0.375)],[1],[0],[0],[1.6714450830186252],['target'],144,0,144,0,264.895771667012,,5,264.8893220000027,264.895771667012,264.895771667012,0.010945000016363338,266.56081320901285,[np.float64(0.44333333333333336)],[np.float64(0.375)],[1],[0],[0],[1.6714450830186252],['target'],5,001,2025-09-28_17h09.12.992,Visual Search Experiment,,2025.1.1,None,2025-09-28 17h09.23.371372 +0530,
145,0,145,[np.float64(-0.4633333333333333)],[np.float64(-0.2633333333333333)],[1],[0],[0],[1.8559779999777675],['target'],145,0,145,0,266.579038166994,,5,266.57239770900924,266.579038166994,266.579038166994,0.011459583009127527,268.42844033401343,[np.float64(-0.4633333333333333)],[np.float64(-0.2633333333333333)],[1],[0],[0],[1.8559779999777675],['target'],5,001,2025-09-28_17h09.12.992,Visual Search Experiment,,2025.1.1,None,2025-09-28 17h09.23.371372 +0530,
146,0,146,[np.float64(-0.16166666666666665)],[np.float64(-0.24833333333333332)],[1],[0],[0],[1.8959600419912022],['target'],146,0,146,0,268.4572947919951,,10,268.44863379199523,268.4572947919951,268.4572947919951,0.0199937500001397,270.3446382090042,[np.float64(-0.16166666666666665)],[np.float64(-0.24833333333333332)],[1],[0],[0],[1.8959600419912022],['target'],5,001,2025-09-28_17h09.12.992,Visual Search Experiment,,2025.1.1,None,2025-09-28 17h09.23.371372 +0530,
147,0,147,[np.float64(-0.20333333333333334)],[np.float64(0.19333333333333333)],[1],[0],[0],[1.6566176250053104],['target'],147,0,147,0,270.36102574999677,,5,270.3544288340199,270.36102574999677,270.36102574999677,0.009651209024013951,272.01111158399726,[np.float64(-0.20333333333333334)],[np.float64(0.19333333333333333)],[1],[0],[0],[1.6566176250053104],['target'],5,001,2025-09-28_17h09.12.992,Visual Search Experiment,,2025.1.1,None,2025-09-28 17h09.23.371372 +0530,
148,0,148,[np.float64(-0.105)],[np.float64(-0.09)],[1],[0],[0],[1.1386470000143163],['target'],148,0,148,0,272.02925374999177,,5,272.0226192919945,272.02925374999177,272.02925374999177,0.011326166015351191,273.16132533401833,[np.float64(-0.105)],[np.float64(-0.09)],[1],[0],[0],[1.1386470000143163],['target'],5,001,2025-09-28_17h09.12.992,Visual Search Experiment,,2025.1.1,None,2025-09-28 17h09.23.371372 +0530,
149,0,149,[np.float64(-0.15666666666666668)],[np.float64(-0.075)],[1],[0],[0],[0.7369153749896213],['target'],149,0,149,0,273.1808722499991,,5,273.17389833400375,273.1808722499991,273.1808722499991,0.012388625007588416,273.9108587090159,[np.float64(-0.15666666666666668)],[np.float64(-0.075)],[1],[0],[0],[0.7369153749896213],['target'],5,001,2025-09-28_17h09.12.992,Visual Search Experiment,,2025.1.1,None,2025-09-28 17h09.23.371372 +0530,
150,0,150,[np.float64(0.11833333333333333)],[np.float64(0.145)],[1],[0],[0],[1.1475747500080615],[None],150,0,150,0,273.93885758399847,,10,273.9303677499993,273.93885758399847,273.93885758399847,0.01937479100888595,275.0779788749933,[np.float64(0.11833333333333333)],[np.float64(0.145)],[1],[0],[0],[1.1475747500080615],[None],5,001,2025-09-28_17h09.12.992,Visual Search Experiment,,2025.1.1,None,2025-09-28 17h09.23.371372 +0530,
151,0,151,[np.float64(0.08)],[np.float64(-0.39)],[1],[0],[0],[1.3233252910140436],['target'],151,0,151,0,275.094435417006,,5,275.0878785419918,275.094435417006,275.094435417006,0.009760334010934457,276.41126575000817,[np.float64(0.08)],[np.float64(-0.39)],[1],[0],[0],[1.3233252910140436],['target'],5,001,2025-09-28_17h09.12.992,Visual Search Experiment,,2025.1.1,None,2025-09-28 17h09.23.371372 +0530,
152,0,152,[np.float64(0.37166666666666665)],[np.float64(-0.08166666666666667)],[1],[0],[0],[1.883795583009487],['target'],152,0,152,0,276.48341712501133,,10,276.47714350000024,276.48341712501133,276.48341712501133,0.06570741601171903,278.36099400001694,[np.float64(0.37166666666666665)],[np.float64(-0.08166666666666667)],[1],[0],[0],[1.883795583009487],['target'],5,001,2025-09-28_17h09.12.992,Visual Search Experiment,,2025.1.1,None,2025-09-28 17h09.23.371372 +0530,
153,0,153,[np.float64(0.07833333333333334)],[np.float64(-0.09166666666666666)],[1],[0],[0],[1.1731655829935335],['target'],153,0,153,0,278.37710608399357,,5,278.37085787500837,278.37710608399357,278.37710608399357,0.009625958016840741,279.54408154200064,[np.float64(0.07833333333333334)],[np.float64(-0.09166666666666666)],[1],[0],[0],[1.1731655829935335],['target'],5,001,2025-09-28_17h09.12.992,Visual Search Experiment,,2025.1.1,None,2025-09-28 17h09.23.371372 +0530,
154,0,154,[np.float64(-0.165)],[np.float64(0.3466666666666667)],[1],[0],[0],[1.1990654580004048],['target'],154,0,154,0,279.57055812500766,,10,279.56289529200876,279.57055812500766,279.57055812500766,0.018676042003789917,280.76200545899337,[np.float64(-0.165)],[np.float64(0.3466666666666667)],[1],[0],[0],[1.1990654580004048],['target'],5,001,2025-09-28_17h09.12.992,Visual Search Experiment,,2025.1.1,None,2025-09-28 17h09.23.371372 +0530,
155,0,155,[np.float64(0.005)],[np.float64(0.485)],[1],[0],[0],[5.87323345898767],['target'],155,0,155,0,280.77896687501925,,5,280.7726775839983,280.77896687501925,280.77896687501925,0.010505792015464976,286.6459721249994,[np.float64(0.005)],[np.float64(0.485)],[1],[0],[0],[5.87323345898767],['target'],5,001,2025-09-28_17h09.12.992,Visual Search Experiment,,2025.1.1,None,2025-09-28 17h09.23.371372 +0530,
156,0,156,[np.float64(-0.16)],[np.float64(-0.2816666666666667)],[1],[0],[0],[1.6436329999996815],['target'],156,0,156,0,286.6757462499954,,10,286.666841541999,286.6757462499954,286.6757462499954,0.02070562497829087,288.31050900000264,[np.float64(-0.16)],[np.float64(-0.2816666666666667)],[1],[0],[0],[1.6436329999996815],['target'],5,001,2025-09-28_17h09.12.992,Visual Search Experiment,,2025.1.1,None,2025-09-28 17h09.23.371372 +0530,
157,0,157,[np.float64(-0.115)],[np.float64(-0.135)],[1],[0],[0],[1.0168558750010561],['target'],157,0,157,0,288.33404129199334,,10,288.32730866700877,288.33404129199334,288.33404129199334,0.016655499988701195,289.3442050839949,[np.float64(-0.115)],[np.float64(-0.135)],[1],[0],[0],[1.0168558750010561],['target'],5,001,2025-09-28_17h09.12.992,Visual Search Experiment,,2025.1.1,None,2025-09-28 17h09.23.371372 +0530,
158,0,158,[np.float64(-0.10333333333333333)],[np.float64(-0.32)],[1],[0],[0],[1.9669514590059407],['target'],158,0,158,0,289.3688350000011,,10,289.3614720000187,289.3688350000011,289.3688350000011,0.017131583008449525,291.32847654199577,[np.float64(-0.10333333333333333)],[np.float64(-0.32)],[1],[0],[0],[1.9669514590059407],['target'],5,001,2025-09-28_17h09.12.992,Visual Search Experiment,,2025.1.1,None,2025-09-28 17h09.23.371372 +0530,
159,0,159,[np.float64(0.4716666666666667)],[np.float64(0.175)],[1],[0],[0],[2.105195292009739],['target'],159,0,159,0,291.3457087500137,,5,291.33933429201716,291.3457087500137,291.3457087500137,0.010694041004171595,293.44457033401704,[np.float64(0.4716666666666667)],[np.float64(0.175)],[1],[0],[0],[2.105195292009739],['target'],5,001,2025-09-28_17h09.12.992,Visual Search Experiment,,2025.1.1,None,2025-09-28 17h09.23.371372 +0530,
160,0,160,[np.float64(0.4816666666666667)],[np.float64(-0.085)],[1],[0],[0],[1.3635680830047932],['target'],160,0,160,0,293.4722763750178,,10,293.4643203339947,293.4722763750178,293.4722763750178,0.019613250013208017,294.82792220902047,[np.float64(0.4816666666666667)],[np.float64(-0.085)],[1],[0],[0],[1.3635680830047932],['target'],5,001,2025-09-28_17h09.12.992,Visual Search Experiment,,2025.1.1,None,2025-09-28 17h09.23.371372 +0530,
161,0,161,[np.float64(-0.055)],[np.float64(-0.46166666666666667)],[1],[0],[0],[1.4574051669915207],['target'],161,0,161,0,294.8441988340055,,5,294.8378774590092,294.8441988340055,294.8441988340055,0.009810707997530699,296.2953480000142,[np.float64(-0.055)],[np.float64(-0.46166666666666667)],[1],[0],[0],[1.4574051669915207],['target'],5,001,2025-09-28_17h09.12.992,Visual Search Experiment,,2025.1.1,None,2025-09-28 17h09.23.371372 +0530,
162,0,162,[np.float64(0.37333333333333335)],[np.float64(0.17666666666666667)],[1],[0],[0],[1.4864894170023035],['target'],162,0,162,0,296.3143771670002,,5,296.3075417090149,296.3143771670002,296.3143771670002,0.012018042005365714,297.7940787920088,[np.float64(0.37333333333333335)],[np.float64(0.17666666666666667)],[1],[0],[0],[1.4864894170023035],['target'],5,001,2025-09-28_17h09.12.992,Visual Search Experiment,,2025.1.1,None,2025-09-28 17h09.23.371372 +0530,
163,0,163,[np.float64(0.17333333333333334)],[np.float64(0.29)],[1],[0],[0],[1.0984557500050869],['target'],163,0,163,0,297.82044325000606,,10,297.81265633401927,297.82044325000606,297.82044325000606,0.018434459023410454,298.91114716700395,[np.float64(0.17333333333333334)],[np.float64(0.29)],[1],[0],[0],[1.0984557500050869],['target'],5,001,2025-09-28_17h09.12.992,Visual Search Experiment,,2025.1.1,None,2025-09-28 17h09.23.371372 +0530,
164,0,164,[np.float64(-0.23)],[np.float64(-0.06333333333333334)],[1],[0],[0],[2.2001259160169866],['target'],164,0,164,0,298.9358895420155,,10,298.92873062501894,298.9358895420155,298.9358895420155,0.017445000004954636,301.1289088340127,[np.float64(-0.23)],[np.float64(-0.06333333333333334)],[1],[0],[0],[2.2001259160169866],['target'],5,001,2025-09-28_17h09.12.992,Visual Search Experiment,,2025.1.1,None,2025-09-28 17h09.23.371372 +0530,
165,0,165,[np.float64(0.30833333333333335)],[np.float64(-0.41333333333333333)],[1],[0],[0],[1.5554132919933181],['target'],165,0,165,0,301.14537541699247,,5,301.1389697919949,301.14537541699247,301.14537541699247,0.009865792002528906,302.69444104199647,[np.float64(0.30833333333333335)],[np.float64(-0.41333333333333333)],[1],[0],[0],[1.5554132919933181],['target'],5,001,2025-09-28_17h09.12.992,Visual Search Experiment,,2025.1.1,None,2025-09-28 17h09.23.371372 +0530,
166,0,166,[np.float64(-0.485)],[np.float64(0.45666666666666667)],[1],[0],[0],[2.0554578750161454],['target'],166,0,166,0,302.712553209014,,5,302.7054909169965,302.712553209014,302.712553209014,0.010912208002991974,304.7609970420017,[np.float64(-0.485)],[np.float64(0.45666666666666667)],[1],[0],[0],[2.0554578750161454],['target'],5,001,2025-09-28_17h09.12.992,Visual Search Experiment,,2025.1.1,None,2025-09-28 17h09.23.371372 +0530,
167,0,167,[np.float64(-0.15)],[np.float64(0.19833333333333333)],[1],[0],[0],[1.3137792919878848],['target'],167,0,167,0,304.7893075000029,,10,304.7803817090171,304.7893075000029,304.7893075000029,0.019246290990849957,306.0941940420016,[np.float64(-0.15)],[np.float64(0.19833333333333333)],[1],[0],[0],[1.3137792919878848],['target'],5,001,2025-09-28_17h09.12.992,Visual Search Experiment,,2025.1.1,None,2025-09-28 17h09.23.371372 +0530,
168,0,168,[np.float64(-0.39166666666666666)],[np.float64(-0.4766666666666667)],[1],[0],[0],[3.0333597919961903],['target'],168,0,168,0,306.11843279202003,,10,306.1113242089923,306.11843279202003,306.11843279202003,0.016994500008877367,309.1447275840037,[np.float64(-0.39166666666666666)],[np.float64(-0.4766666666666667)],[1],[0],[0],[3.0333597919961903],['target'],5,001,2025-09-28_17h09.12.992,Visual Search Experiment,,2025.1.1,None,2025-09-28 17h09.23.371372 +0530,
169,0,169,[np.float64(0.175)],[np.float64(0.36)],[1],[0],[0],[1.956842500017956],['target'],169,0,169,0,309.16126245900523,,5,309.154608834011,309.16126245900523,309.16126245900523,0.00973925000289455,311.11151245899964,[np.float64(0.175)],[np.float64(0.36)],[1],[0],[0],[1.956842500017956],['target'],5,001,2025-09-28_17h09.12.992,Visual Search Experiment,,2025.1.1,None,2025-09-28 17h09.23.371372 +0530,
170,0,170,[np.float64(0.25833333333333336)],[np.float64(0.4066666666666667)],[1],[0],[0],[1.3884281249775086],['target'],170,0,170,0,311.1307391670125,,5,311.12336283401237,311.1307391670125,311.1307391670125,0.011675082991132513,312.5118500000099,[np.float64(0.25833333333333336)],[np.float64(0.4066666666666667)],[1],[0],[0],[1.3884281249775086],['target'],5,001,2025-09-28_17h09.12.992,Visual Search Experiment,,2025.1.1,None,2025-09-28 17h09.23.371372 +0530,
171,0,171,[np.float64(-0.3933333333333333)],[np.float64(-0.285)],[1],[0],[0],[2.2381650420138612],['target'],171,0,171,0,312.5308589170163,,5,312.5239572499995,312.5308589170163,312.5308589170163,0.011934000009205192,314.7621787090029,[np.float64(-0.3933333333333333)],[np.float64(-0.285)],[1],[0],[0],[2.2381650420138612],['target'],5,001,2025-09-28_17h09.12.992,Visual Search Experiment,,2025.1.1,None,2025-09-28 17h09.23.371372 +0530,
172,0,172,[np.float64(0.21166666666666667)],[np.float64(0.4716666666666667)],[1],[0],[0],[2.021479207993252],['target'],172,0,172,0,314.78187941701617,,5,314.7750738750037,314.78187941701617,314.78187941701617,0.01273524999851361,316.79662408400327,[np.float64(0.21166666666666667)],[np.float64(0.4716666666666667)],[1],[0],[0],[2.021479207993252],['target'],5,001,2025-09-28_17h09.12.992,Visual Search Experiment,,2025.1.1,None,2025-09-28 17h09.23.371372 +0530,
173,0,173,[np.float64(0.11666666666666667)],[np.float64(0.12333333333333334)],[1],[0],[0],[1.4679275410016999],['target'],173,0,173,0,316.8169939170184,,5,316.8098230420146,316.8169939170184,316.8169939170184,0.0130198749830015,318.2778086250182,[np.float64(0.11666666666666667)],[np.float64(0.12333333333333334)],[1],[0],[0],[1.4679275410016999],['target'],5,001,2025-09-28_17h09.12.992,Visual Search Experiment,,2025.1.1,None,2025-09-28 17h09.23.371372 +0530,
174,0,174,[np.float64(-0.35)],[np.float64(0.14666666666666667)],[1],[0],[0],[2.5617143750132527],['target'],174,0,174,0,318.3077692500083,,10,318.29951604199596,318.3077692500083,318.3077692500083,0.021523916017031297,320.8612760420074,[np.float64(-0.35)],[np.float64(0.14666666666666667)],[1],[0],[0],[2.5617143750132527],['target'],5,001,2025-09-28_17h09.12.992,Visual Search Experiment,,2025.1.1,None,2025-09-28 17h09.23.371372 +0530,
175,0,175,[np.float64(0.105)],[np.float64(-0.41)],[1],[0],[0],[2.6743733329931274],['target'],175,0,175,0,320.8780888750043,,5,320.8718230840168,320.8780888750043,320.8780888750043,0.010381125001003966,323.5462621670158,[np.float64(0.105)],[np.float64(-0.41)],[1],[0],[0],[2.6743733329931274],['target'],5,001,2025-09-28_17h09.12.992,Visual Search Experiment,,2025.1.1,None,2025-09-28 17h09.23.371372 +0530,
176,0,176,[np.float64(-0.115)],[np.float64(0.14833333333333334)],[1],[0],[0],[2.1037980830005836],['target'],176,0,176,0,323.56586341699585,,5,323.5589719589916,323.56586341699585,323.56586341699585,0.012537792004877701,325.6628265840118,[np.float64(-0.115)],[np.float64(0.14833333333333334)],[1],[0],[0],[2.1037980830005836],['target'],5,001,2025-09-28_17h09.12.992,Visual Search Experiment,,2025.1.1,None,2025-09-28 17h09.23.371372 +0530,
177,0,177,[np.float64(0.29)],[np.float64(0.10666666666666667)],[1],[0],[0],[1.2023655829834752],['target'],177,0,177,0,325.68199133401504,,5,325.6752336670179,325.68199133401504,325.68199133401504,0.012252000014996156,326.8776449589932,[np.float64(0.29)],[np.float64(0.10666666666666667)],[1],[0],[0],[1.2023655829834752],['target'],5,001,2025-09-28_17h09.12.992,Visual Search Experiment,,2025.1.1,None,2025-09-28 17h09.23.371372 +0530,
178,0,178,[np.float64(-0.075)],[np.float64(-0.09166666666666666)],[1],[0],[0],[1.2482269160100259],['target'],178,0,178,0,326.9046332500002,,10,326.8965295420203,326.9046332500002,326.9046332500002,0.018746874993667006,328.1447992089961,[np.float64(-0.075)],[np.float64(-0.09166666666666666)],[1],[0],[0],[1.2482269160100259],['target'],5,001,2025-09-28_17h09.12.992,Visual Search Experiment,,2025.1.1,None,2025-09-28 17h09.23.371372 +0530,
179,0,179,[np.float64(0.2733333333333333)],[np.float64(-0.20666666666666667)],[1],[0],[0],[1.2726055829843972],['target'],179,0,179,0,328.16177162501845,,5,328.155038041994,328.16177162501845,328.16177162501845,0.010075541998958215,329.4276922919962,[np.float64(0.2733333333333333)],[np.float64(-0.20666666666666667)],[1],[0],[0],[1.2726055829843972],['target'],5,001,2025-09-28_17h09.12.992,Visual Search Experiment,,2025.1.1,None,2025-09-28 17h09.23.371372 +0530,
180,0,180,[np.float64(-0.05333333333333334)],[np.float64(0.24333333333333335)],[1],[0],[0],[1.472033875004854],['target'],180,0,180,0,329.44574858399574,,5,329.43887616699794,329.44574858399574,329.44574858399574,0.011055999988457188,330.91096850001486,[np.float64(-0.05333333333333334)],[np.float64(0.24333333333333335)],[1],[0],[0],[1.472033875004854],['target'],5,001,2025-09-28_17h09.12.992,Visual Search Experiment,,2025.1.1,None,2025-09-28 17h09.23.371372 +0530,
181,0,181,[np.float64(-0.22833333333333333)],[np.float64(-0.015)],[1],[0],[0],[1.2728793749993201],['target'],181,0,181,0,330.92986604201724,,5,330.92292012501275,330.92986604201724,330.92986604201724,0.011789333017077297,332.1958511249977,[np.float64(-0.22833333333333333)],[np.float64(-0.015)],[1],[0],[0],[1.2728793749993201],['target'],5,001,2025-09-28_17h09.12.992,Visual Search Experiment,,2025.1.1,None,2025-09-28 17h09.23.371372 +0530,
182,0,182,[np.float64(0.2)],[np.float64(0.18666666666666668)],[1],[0],[0],[1.7042973750212695],['target'],182,0,182,0,332.21376229199814,,5,332.2071264590195,332.21376229199814,332.21376229199814,0.011134000000311062,333.91148358400096,[np.float64(0.2)],[np.float64(0.18666666666666668)],[1],[0],[0],[1.7042973750212695],['target'],5,001,2025-09-28_17h09.12.992,Visual Search Experiment,,2025.1.1,None,2025-09-28 17h09.23.371372 +0530,
183,0,183,[np.float64(-0.37166666666666665)],[np.float64(0.2966666666666667)],[1],[0],[0],[2.2121566249988973],['target'],183,0,183,0,333.94075479201274,,10,333.93190266701276,333.94075479201274,333.94075479201274,0.020248916989658028,336.1440925000061,[np.float64(-0.37166666666666665)],[np.float64(0.2966666666666667)],[1],[0],[0],[2.2121566249988973],['target'],5,001,2025-09-28_17h09.12.992,Visual Search Experiment,,2025.1.1,None,2025-09-28 17h09.23.371372 +0530,
184,0,184,[np.float64(-0.19333333333333333)],[np.float64(0.3333333333333333)],[1],[0],[0],[1.0005990829959046],['target'],184,0,184,0,336.1680831669946,,10,336.16109929201775,336.1680831669946,336.1680831669946,0.016869666025741026,337.1617395840003,[np.float64(-0.19333333333333333)],[np.float64(0.3333333333333333)],[1],[0],[0],[1.0005990829959046],['target'],5,001,2025-09-28_17h09.12.992,Visual Search Experiment,,2025.1.1,None,2025-09-28 17h09.23.371372 +0530,
185,0,185,[np.float64(0.315)],[np.float64(-0.06333333333333334)],[1],[0],[0],[1.5648398749763146],['target'],185,0,185,0,337.186814042012,,10,337.17952704199706,337.186814042012,337.186814042012,0.017629832989769056,338.74439945901395,[np.float64(0.315)],[np.float64(-0.06333333333333334)],[1],[0],[0],[1.5648398749763146],['target'],5,001,2025-09-28_17h09.12.992,Visual Search Experiment,,2025.1.1,None,2025-09-28 17h09.23.371372 +0530,
186,0,186,[np.float64(-0.20833333333333334)],[np.float64(0.42)],[1],[0],[0],[1.7911179999937303],['target'],186,0,186,0,338.76078800001414,,5,338.7542808339931,338.76078800001414,338.76078800001414,0.009714707994135097,340.54546704201493,[np.float64(-0.20833333333333334)],[np.float64(0.42)],[1],[0],[0],[1.7911179999937303],['target'],5,001,2025-09-28_17h09.12.992,Visual Search Experiment,,2025.1.1,None,2025-09-28 17h09.23.371372 +0530,
187,0,187,[np.float64(0.21166666666666667)],[np.float64(-0.25666666666666665)],[1],[0],[0],[1.7776067499944475],['target'],187,0,187,0,340.57555958401645,,10,340.56684462502017,340.57555958401645,340.57555958401645,0.021196790999965742,342.3444953750004,[np.float64(0.21166666666666667)],[np.float64(-0.25666666666666665)],[1],[0],[0],[1.7776067499944475],['target'],5,001,2025-09-28_17h09.12.992,Visual Search Experiment,,2025.1.1,None,2025-09-28 17h09.23.371372 +0530,
188,0,188,[np.float64(-0.34)],[np.float64(-0.44166666666666665)],[1],[0],[0],[2.1892664170009084],['target'],188,0,188,0,342.36138770901016,,5,342.3549224169983,342.36138770901016,342.36138770901016,0.010250291001284495,344.54424041701714,[np.float64(-0.34)],[np.float64(-0.44166666666666665)],[1],[0],[0],[2.1892664170009084],['target'],5,001,2025-09-28_17h09.12.992,Visual Search Experiment,,2025.1.1,None,2025-09-28 17h09.23.371372 +0530,
189,0,189,[np.float64(0.075)],[np.float64(-0.41833333333333333)],[1],[0],[0],[1.3475845409848262],['target'],189,0,189,0,344.57256458399934,,10,344.563820750016,344.57256458399934,344.57256458399934,0.01944229198852554,345.9114494170062,[np.float64(0.075)],[np.float64(-0.41833333333333333)],[1],[0],[0],[1.3475845409848262],['target'],5,001,2025-09-28_17h09.12.992,Visual Search Experiment,,2025.1.1,None,2025-09-28 17h09.23.371372 +0530,
190,0,190,[np.float64(-0.0016666666666666668)],[np.float64(0.056666666666666664)],[1],[0],[0],[8.647754792007618],['target'],190,0,190,0,345.9371034170035,,10,345.92976395899314,345.9371034170035,345.9371034170035,0.018140040978323668,354.5775735840143,[np.float64(-0.0016666666666666668)],[np.float64(0.056666666666666664)],[1],[0],[0],[8.647754792007618],['target'],5,001,2025-09-28_17h09.12.992,Visual Search Experiment,,2025.1.1,None,2025-09-28 17h09.23.371372 +0530,
191,0,191,[np.float64(-0.14666666666666667)],[np.float64(0.31166666666666665)],[1],[0],[0],[1.0671934580022935],['target'],191,0,191,0,354.60229291699943,,10,354.59505479200743,354.60229291699943,354.60229291699943,0.01730500001576729,355.6623109590146,[np.float64(-0.14666666666666667)],[np.float64(0.31166666666666665)],[1],[0],[0],[1.0671934580022935],['target'],5,001,2025-09-28_17h09.12.992,Visual Search Experiment,,2025.1.1,None,2025-09-28 17h09.23.371372 +0530,
192,0,192,[np.float64(-0.22166666666666668)],[np.float64(-0.12833333333333333)],[1],[0],[0],[1.3886770409881137],['target'],192,0,192,0,355.6786589169933,,5,355.67243012500694,355.6786589169933,355.6786589169933,0.009958292008377612,357.06115858399426,[np.float64(-0.22166666666666668)],[np.float64(-0.12833333333333333)],[1],[0],[0],[1.3886770409881137],['target'],5,001,2025-09-28_17h09.12.992,Visual Search Experiment,,2025.1.1,None,2025-09-28 17h09.23.371372 +0530,
193,0,193,[np.float64(-0.04666666666666667)],[np.float64(0.33166666666666667)],[1],[0],[0],[1.5984964160015807],['target'],193,0,193,0,357.08725029201014,,10,357.07962087501073,357.08725029201014,357.08725029201014,0.01832462500897236,358.6781621669943,[np.float64(-0.04666666666666667)],[np.float64(0.33166666666666667)],[1],[0],[0],[1.5984964160015807],['target'],5,001,2025-09-28_17h09.12.992,Visual Search Experiment,,2025.1.1,None,2025-09-28 17h09.23.371372 +0530,
194,0,194,[np.float64(0.25666666666666665)],[np.float64(0.43)],[1],[0],[0],[2.549055374984164],['target'],194,0,194,0,358.7030642500031,,10,358.6959119590174,358.7030642500031,358.7030642500031,0.01755700001376681,361.24501524999505,[np.float64(0.25666666666666665)],[np.float64(0.43)],[1],[0],[0],[2.549055374984164],['target'],5,001,2025-09-28_17h09.12.992,Visual Search Experiment,,2025.1.1,None,2025-09-28 17h09.23.371372 +0530,
195,0,195,[np.float64(0.20666666666666667)],[np.float64(-0.10333333333333333)],[1],[0],[0],[1.1881227919948287],['target'],195,0,195,0,361.2628946250188,,5,361.2564096249989,361.2628946250188,361.2628946250188,0.011221416993066669,362.44460329200956,[np.float64(0.20666666666666667)],[np.float64(-0.10333333333333333)],[1],[0],[0],[1.1881227919948287],['target'],5,001,2025-09-28_17h09.12.992,Visual Search Experiment,,2025.1.1,None,2025-09-28 17h09.23.371372 +0530,
196,0,196,[np.float64(0.24666666666666667)],[np.float64(0.155)],[1],[0],[0],[0.9884227919974364],['target'],196,0,196,0,362.4629638339975,,5,362.45626375000575,362.4629638339975,362.4629638339975,0.011478542000986636,363.44475245900685,[np.float64(0.24666666666666667)],[np.float64(0.155)],[1],[0],[0],[0.9884227919974364],['target'],5,001,2025-09-28_17h09.12.992,Visual Search Experiment,,2025.1.1,None,2025-09-28 17h09.23.371372 +0530,
197,0,197,[np.float64(0.075)],[np.float64(-0.4166666666666667)],[1],[0],[0],[2.7115542919782456],['target'],197,0,197,0,363.475193249993,,10,363.46614324999973,363.475193249993,363.475193249993,0.021225750009762123,366.17774029201246,[np.float64(0.075)],[np.float64(-0.4166666666666667)],[1],[0],[0],[2.7115542919782456],['target'],5,001,2025-09-28_17h09.12.992,Visual Search Experiment,,2025.1.1,None,2025-09-28 17h09.23.371372 +0530,
198,0,198,[np.float64(-0.3516666666666667)],[np.float64(0.2783333333333333)],[1],[0],[0],[1.6241172089939937],['target'],198,0,198,0,366.1948960000009,,5,366.188451583992,366.1948960000009,366.1948960000009,0.010536166984820738,367.8126286670158,[np.float64(-0.3516666666666667)],[np.float64(0.2783333333333333)],[1],[0],[0],[1.6241172089939937],['target'],5,001,2025-09-28_17h09.12.992,Visual Search Experiment,,2025.1.1,None,2025-09-28 17h09.23.371372 +0530,
199,0,199,[np.float64(-0.26666666666666666)],[np.float64(0.48333333333333334)],[1],[0],[0],[0.9782009580230806],['target'],199,0,199,0,367.84176579199266,,10,367.8332129170012,367.84176579199266,367.84176579199266,0.02042562499991618,368.81145587499486,[np.float64(-0.26666666666666666)],[np.float64(0.48333333333333334)],[1],[0],[0],[0.9782009580230806],['target'],5,001,2025-09-28_17h09.12.992,Visual Search Experiment,,2025.1.1,None,2025-09-28 17h09.23.371372 +0530,
